loggingTime(txt),locationTimestamp_since1970(s),locationLatitude(WGS84),locationLongitude(WGS84),locationAltitude(m),locationSpeed(m/s),locationSpeedAccuracy(m/s),locationCourse(°),locationCourseAccuracy(°),locationVerticalAccuracy(m),locationHorizontalAccuracy(m),locationFloor(Z),accelerometerTimestamp_sinceReboot(s),accelerometerAccelerationX(G),accelerometerAccelerationY(G),accelerometerAccelerationZ(G),motionTimestamp_sinceReboot(s),motionYaw(rad),motionRoll(rad),motionPitch(rad),motionRotationRateX(rad/s),motionRotationRateY(rad/s),motionRotationRateZ(rad/s),motionUserAccelerationX(G),motionUserAccelerationY(G),motionUserAccelerationZ(G),motionAttitudeReferenceFrame(txt),motionQuaternionX(R),motionQuaternionY(R),motionQuaternionZ(R),motionQuaternionW(R),motionGravityX(G),motionGravityY(G),motionGravityZ(G),motionMagneticFieldX(µT),motionMagneticFieldY(µT),motionMagneticFieldZ(µT),motionHeading(°),motionMagneticFieldCalibrationAccuracy(Z),activityTimestamp_sinceReboot(s),activity(txt),activityActivityConfidence(Z),activityActivityStartDate(txt),pedometerStartDate(txt),pedometerNumberofSteps(N),pedometerAverageActivePace(s/m),pedometerCurrentPace(s/m),pedometerCurrentCadence(steps/s),pedometerDistance(m),pedometerFloorAscended(N),pedometerFloorDescended(N),pedometerEndDate(txt),altimeterTimestamp_sinceReboot(s),altimeterReset(bool),altimeterRelativeAltitude(m),altimeterPressure(kPa),batteryState(N),batteryLevel(R)
2023-11-06T09:24:37.756+02:00,0,0,0,0,0,-1,0,-1,-1,-1,0,389532.6369536667,-0.002410888671875,0.2084197998046875,-1.13671875,389532.6319746667,-0.06296256286531701,-0.1231998778633471,-0.1787357641264371,0.1060262247920036,-0.696662425994873,-0.1140696555376053,0.08012872189283371,0.02866582572460175,-0.1723305583000183,XArbitraryZVertical,-0.09096551987711707,-0.05848105765955654,-0.02579947682695621,0.9938006281062423,-0.1209307461977005,0.1777856200933456,-0.9766104817390442,0,0,0,-1,-1,389475.412748125,unknown,2,2023-11-06T09:23:40.501+02:00,2023-11-06T09:23:03.878+02:00,9,0.5993428,0,0,7.403943,0,0,2023-11-06T09:23:25.206+02:00,720948276.6627376,0,-0.9899902,101.7212,1,0.7
2023-11-06T09:24:37.762+02:00,0,0,0,0,0,-1,0,-1,-1,-1,0,389532.6568676667,-0.1030120849609375,0.1146240234375,-1.129150390625,389532.6518896667,-0.06634765210512725,-0.1364488532840116,-0.180072775081317,-0.2683314085006714,-0.6080441474914551,-0.1753137707710266,0.0903235524892807,-0.01697650551795959,-0.1660302877426147,XArbitraryZVertical,-0.09190819422454069,-0.06488269346257484,-0.02683029158743847,0.9932891020549728,-0.1338263899087906,0.1791011691093445,-0.9746862649917603,0,0,0,-1,-1,389475.412748125,unknown,2,2023-11-06T09:23:40.501+02:00,2023-11-06T09:23:03.878+02:00,9,0.5993428,0,0,7.403943,0,0,2023-11-06T09:23:25.206+02:00,720948276.6627376,0,-0.9899902,101.7212,1,0.7
2023-11-06T09:24:37.776+02:00,0,0,0,0,0,-1,0,-1,-1,-1,0,389532.6767826667,-0.1068572998046875,0.17279052734375,-1.137863159179688,389532.6718036667,-0.07102295314355073,-0.1496714178208016,-0.1862111672498656,-0.3478921055793762,-0.6471561193466187,-0.2087352722883224,0.06496196985244751,-0.06636244058609009,-0.1687920093536377,XArbitraryZVertical,-0.09529544516248442,-0.07110350559112813,-0.02830461124732977,0.9925029069338196,-0.1465354710817337,0.1851368993520737,-0.97172611951828,0,0,0,-1,-1,389475.412748125,unknown,2,2023-11-06T09:23:40.501+02:00,2023-11-06T09:23:03.878+02:00,9,0.5993428,0,0,7.403943,0,0,2023-11-06T09:23:25.206+02:00,720948276.6627376,0,-0.9899902,101.7212,1,0.7
2023-11-06T09:24:37.790+02:00,0,0,0,0,0,-1,0,-1,-1,-1,0,389532.6966966667,-0.176605224609375,0.260345458984375,-1.103073120117188,389532.6917186667,-0.07714353215771046,-0.1636452336249194,-0.1915385029905816,-0.2486617416143417,-0.6192474961280823,-0.3166801631450653,0.02060846984386444,0.03124921023845673,-0.1560980081558228,XArbitraryZVertical,-0.09836941566048325,-0.07762121520818847,-0.03044749564395135,0.9916508562811316,-0.1599364876747131,0.1903694868087769,-0.9685968160629272,0,0,0,-1,-1,389475.412748125,unknown,2,2023-11-06T09:23:40.501+02:00,2023-11-06T09:23:03.878+02:00,9,0.5993428,0,0,7.403943,0,0,2023-11-06T09:23:25.206+02:00,720948276.6627376,0,-0.9899902,101.7212,1,0.7
2023-11-06T09:24:37.809+02:00,0,0,0,0,0,-1,0,-1,-1,-1,0,389532.7166116667,-0.2503204345703125,0.2907867431640625,-1.013153076171875,389532.7116326667,-0.08392314931639752,-0.1755795812117606,-0.1940845364926956,-0.1266230940818787,-0.428721010684967,-0.2380673289299011,-0.05017371475696564,0.09672823548316956,-0.09767341613769531,XArbitraryZVertical,-0.1000926251153071,-0.08313892738382322,-0.03310354995415633,0.9909457744525556,-0.1713991761207581,0.1928683370351791,-0.9661387801170349,0,0,0,-1,-1,389475.412748125,unknown,2,2023-11-06T09:23:40.501+02:00,2023-11-06T09:23:03.878+02:00,9,0.5993428,0,0,7.403943,0,0,2023-11-06T09:23:25.206+02:00,720948276.6627376,0,-0.9899902,101.7212,1,0.7
2023-11-06T09:24:37.829+02:00,0,0,0,0,0,-1,0,-1,-1,-1,0,389532.7365256667,-0.2293548583984375,0.2083892822265625,-0.9154205322265625,389532.7315476667,-0.08572454907713893,-0.1823713462098955,-0.197273334531624,-0.2194061130285263,-0.2252621352672577,0.0980217307806015,-0.06757786870002747,0.0558805912733078,0.003908753395080566,XArbitraryZVertical,-0.1018604554784258,-0.08633140667517424,-0.03350472457458512,0.9904790870326579,-0.1778445243835449,0.1959962844848633,-0.9643426537513733,0,0,0,-1,-1,389475.412748125,unknown,2,2023-11-06T09:23:40.501+02:00,2023-11-06T09:23:03.878+02:00,9,0.5993428,0,0,7.403943,0,0,2023-11-06T09:23:25.206+02:00,720948276.6627376,0,-0.9899902,101.7212,1,0.7
2023-11-06T09:24:37.849+02:00,0,0,0,0,0,-1,0,-1,-1,-1,0,389532.7564406667,-0.23822021484375,0.188812255859375,-0.859283447265625,389532.7514616667,-0.08192359201320934,-0.1848396907507001,-0.2060822973277227,-0.5915096998214722,0.02023630030453205,0.3760473132133484,-0.04679983854293823,0.0003294050693511963,0.08213090896606445,XArbitraryZVertical,-0.1060932225206579,-0.08752770204851179,-0.03107458973062403,0.9900088122061927,-0.1799000054597855,0.2046266794204712,-0.9621662497520447,0,0,0,-1,-1,389475.412748125,unknown,2,2023-11-06T09:23:40.501+02:00,2023-11-06T09:23:03.878+02:00,9,0.5993428,0,0,7.403943,0,0,2023-11-06T09:23:25.206+02:00,720948276.6627376,0,-0.9899902,101.7212,1,0.7
2023-11-06T09:24:37.869+02:00,0,0,0,0,0,-1,0,-1,-1,-1,0,389532.7763546667,-0.138946533203125,0.2921905517578125,-0.8279571533203125,389532.7713766667,-0.08351975064475349,-0.1852554591309123,-0.2194542164912949,-0.6420654058456421,-0.1445731520652771,-0.1046042665839195,-0.06022559106349945,-0.05651834607124329,0.1272695660591125,XArbitraryZVertical,-0.1127808015861305,-0.08730683984122228,-0.03119871722788211,0.989284885142078,-0.179779902100563,0.2176969647407532,-0.9593160152435303,0,0,0,-1,-1,389475.412748125,unknown,2,2023-11-06T09:23:40.501+02:00,2023-11-06T09:23:03.878+02:00,9,0.5993428,0,0,7.403943,0,0,2023-11-06T09:23:25.206+02:00,720948276.6627376,0,-0.9899902,101.7212,1,0.7
2023-11-06T09:24:37.889+02:00,0,0,0,0,0,-1,0,-1,-1,-1,0,389532.7962696667,-0.1702423095703125,0.29962158203125,-0.813507080078125,389532.7912906667,-0.08805628573196039,-0.1914452456301763,-0.2295841907226317,-0.5259069204330444,-0.2974221110343933,-0.1600934565067291,0.09679950773715973,0.1126678735017776,0.1249923706054688,XArbitraryZVertical,-0.1180843229942639,-0.0898371906552667,-0.03258734259041741,0.9883943482837321,-0.1852852553129196,0.2275726497173309,-0.9559707641601562,0,0,0,-1,-1,389475.412748125,unknown,2,2023-11-06T09:23:40.501+02:00,2023-11-06T09:23:03.878+02:00,9,0.5993428,0,0,7.403943,0,0,2023-11-06T09:23:25.206+02:00,720948276.6627376,0,-0.9899902,101.7212,1,0.7
2023-11-06T09:24:37.909+02:00,0,0,0,0,0,-1,0,-1,-1,-1,0,389532.8161836667,-0.2505035400390625,0.21051025390625,-0.77105712890625,389532.8112056667,-0.0937605314444262,-0.1978992206832159,-0.2410627705084018,-0.681179404258728,-0.2319051325321198,-0.1702319085597992,-0.04613560438156128,0.007053807377815247,0.1710183024406433,XArbitraryZVertical,-0.1241160669431657,-0.09235650154399262,-0.03443030833304179,0.9873601904721029,-0.1909249722957611,0.2387347966432571,-0.9521309733390808,0,0,0,-1,-1,389475.412748125,unknown,2,2023-11-06T09:23:40.501+02:00,2023-11-06T09:23:03.878+02:00,9,0.5993428,0,0,7.403943,0,0,2023-11-06T09:23:25.206+02:00,720948276.6627376,0,-0.9899902,101.7212,1,0.7
2023-11-06T09:24:37.929+02:00,0,0,0,0,0,-1,0,-1,-1,-1,0,389532.8360986667,-0.26495361328125,0.2326812744140625,-0.7716064453125,389532.8311196667,-0.1012450838424917,-0.2041888584607355,-0.2539404529441704,-0.707750141620636,-0.2199019938707352,-0.300346851348877,-0.05820083618164062,-0.02786177396774292,0.1748728156089783,XArbitraryZVertical,-0.1309241899855408,-0.09459303510201746,-0.0370430574102734,0.9861738038179583,-0.1962700039148331,0.2512199878692627,-0.9478220343589783,0,0,0,-1,-1,389475.412748125,unknown,2,2023-11-06T09:23:40.501+02:00,2023-11-06T09:23:03.878+02:00,9,0.5993428,0,0,7.403943,0,0,2023-11-06T09:23:25.206+02:00,720948276.6627376,0,-0.9899902,101.7212,1,0.7
2023-11-06T09:24:37.949+02:00,0,0,0,0,0,-1,0,-1,-1,-1,0,389532.8560126667,-0.277923583984375,0.199493408203125,-0.75994873046875,389532.8510346667,-0.1109968661446867,-0.2104270125483877,-0.2661368947210799,-0.6644522547721863,-0.1701160669326782,-0.3470340669155121,-0.08306789398193359,-0.0397244393825531,0.1757818460464478,XArbitraryZVertical,-0.1375131890835638,-0.09661196612365652,-0.04076341209686234,0.9849337936327262,-0.2015237957239151,0.2630062997341156,-0.943512499332428,0,0,0,-1,-1,389475.412748125,unknown,2,2023-11-06T09:23:40.501+02:00,2023-11-06T09:23:03.878+02:00,9,0.5993428,0,0,7.403943,0,0,2023-11-06T09:23:25.206+02:00,720948276.6627376,0,-0.9899902,101.7212,1,0.7
2023-11-06T09:24:37.969+02:00,0,0,0,0,0,-1,0,-1,-1,-1,0,389532.8759276667,-0.2457427978515625,0.162750244140625,-0.746246337890625,389532.8709486667,-0.1213102938015082,-0.2165516649640854,-0.2765706269940694,-0.561745822429657,-0.1610171049833298,-0.4181158244609833,-0.04340904951095581,-0.09698700904846191,0.1839598417282104,XArbitraryZVertical,-0.1432738717734648,-0.09852901161735296,-0.04481895246112712,0.9837458256716305,-0.2066977769136429,0.2730582058429718,-0.9395292401313782,0,0,0,-1,-1,389475.412748125,unknown,2,2023-11-06T09:23:40.501+02:00,2023-11-06T09:23:03.878+02:00,9,0.5993428,0,0,7.403943,0,0,2023-11-06T09:23:25.206+02:00,720948276.6627376,0,-0.9899902,101.7212,1,0.7
2023-11-06T09:24:37.989+02:00,0,0,0,0,0,-1,0,-1,-1,-1,0,389532.8958426667,-0.258758544921875,0.1205291748046875,-0.7229156494140625,389532.8908636667,-0.1327649526349353,-0.2223565539579099,-0.284551316673756,-0.4524848163127899,-0.1024944186210632,-0.4877322614192963,-0.04245908558368683,-0.138301283121109,0.1991587281227112,XArbitraryZVertical,-0.1478956542665035,-0.1002386430781381,-0.04956054326316425,0.9826610642547154,-0.2116608023643494,0.2807268500328064,-0.9361581802368164,0,0,0,-1,-1,389475.412748125,unknown,2,2023-11-06T09:23:40.501+02:00,2023-11-06T09:23:03.878+02:00,9,0.5993428,0,0,7.403943,0,0,2023-11-06T09:23:25.206+02:00,720948276.6627376,0,-0.9899902,101.7212,1,0.7
2023-11-06T09:24:38.009+02:00,0,0,0,0,0,-1,0,-1,-1,-1,0,389532.9157566667,-0.24365234375,0.0762939453125,-0.711822509765625,389532.9107776667,-0.1453637917227821,-0.2275000708236425,-0.2900695629308062,-0.35804283618927,-0.05868168547749519,-0.5713816285133362,-0.03976947069168091,-0.1866841316223145,0.2175760865211487,XArbitraryZVertical,-0.1513696677269952,-0.1015892480834607,-0.05502993157999768,0.9817019019422671,-0.2161204367876053,0.2860188782215118,-0.9335336685180664,0,0,0,-1,-1,389475.412748125,unknown,2,2023-11-06T09:23:40.501+02:00,2023-11-06T09:23:03.878+02:00,9,0.5993428,0,0,7.403943,0,0,2023-11-06T09:23:25.206+02:00,720948276.6627376,0,-0.9899902,101.7212,1,0.7
2023-11-06T09:24:38.029+02:00,0,0,0,0,0,-1,0,-1,-1,-1,0,389532.9356716667,-0.2441864013671875,0.0438690185546875,-0.7089691162109375,389532.9306926667,-0.1592341157587246,-0.2323860581635732,-0.2939777347481112,-0.3393137156963348,-0.02631309255957603,-0.6462612748146057,-0.01844114065170288,-0.2328157722949982,0.2197323441505432,XArbitraryZVertical,-0.1541327210187676,-0.1027484579937387,-0.06121924345206582,0.9807844710899229,-0.2204199582338333,0.2897616028785706,-0.9313716888427734,0,0,0,-1,-1,389475.412748125,unknown,2,2023-11-06T09:23:40.501+02:00,2023-11-06T09:23:03.878+02:00,9,0.5993428,0,0,7.403943,0,0,2023-11-06T09:23:25.206+02:00,720948276.6627376,0,-0.9899902,101.7212,1,0.7
2023-11-06T09:24:38.049+02:00,0,0,0,0,0,-1,0,-1,-1,-1,0,389532.9555856667,-0.2440338134765625,0.009490966796875,-0.7005615234375,389532.9506066667,-0.1750273005675584,-0.2372049301480028,-0.2975123468393097,-0.3591528236865997,-0.004465584643185139,-0.7469313740730286,-0.02509240806102753,-0.2676300406455994,0.2257604598999023,XArbitraryZVertical,-0.1568314067568143,-0.1037073569595945,-0.06835995644821807,0.9797833738804151,-0.2246634662151337,0.2931427359580994,-0.9292973875999451,0,0,0,-1,-1,389475.412748125,unknown,2,2023-11-06T09:23:40.501+02:00,2023-11-06T09:23:03.878+02:00,9,0.5993428,0,0,7.403943,0,0,2023-11-06T09:23:25.206+02:00,720948276.6627376,0,-0.9899902,101.7212,1,0.7
2023-11-06T09:24:38.068+02:00,0,0,0,0,0,-1,0,-1,-1,-1,0,389532.9755006667,-0.230560302734375,-0.0025787353515625,-0.7287750244140625,389532.9705216667,-0.1931473221454615,-0.2432102418750471,-0.3015432284921147,-0.4558439552783966,-0.07127924263477325,-0.8421689867973328,-0.005748867988586426,-0.2945069372653961,0.2193949222564697,XArbitraryZVertical,-0.1599611567926243,-0.1049946767508259,-0.07649041264024521,0.978538587878415,-0.2299536764621735,0.296994149684906,-0.9267770648002625,0,0,0,-1,-1,389475.412748125,unknown,2,2023-11-06T09:23:40.501+02:00,2023-11-06T09:23:03.878+02:00,9,0.5993428,0,0,7.403943,0,0,2023-11-06T09:23:25.206+02:00,720948276.6627376,0,-0.9899902,101.7212,1,0.7
2023-11-06T09:24:38.088+02:00,0,0,0,0,0,-1,0,-1,-1,-1,0,389532.9954146667,-0.25994873046875,0.0224456787109375,-0.8056488037109375,389532.9904366667,-0.2136309684127831,-0.2517131183475092,-0.3073248017615223,-0.5798287391662598,-0.1553461700677872,-0.9108784794807434,0.003034129738807678,-0.2988629639148712,0.1608418822288513,XArbitraryZVertical,-0.1642071499473889,-0.1071496770406089,-0.08541987726661382,0.9768615173476296,-0.2373939007520676,0.3025098741054535,-0.9231098890304565,0,0,0,-1,-1,389475.412748125,unknown,2,2023-11-06T09:23:40.501+02:00,2023-11-06T09:23:03.878+02:00,9,0.5993428,0,0,7.403943,0,0,2023-11-06T09:23:25.206+02:00,720948276.6627376,0,-0.9899902,101.7212,1,0.7
2023-11-06T09:24:38.108+02:00,0,0,0,0,0,-1,0,-1,-1,-1,0,389533.0153296667,-0.3387603759765625,0.0709686279296875,-0.944854736328125,389533.0103506667,-0.2355656115525879,-0.2616434511727302,-0.3150966799208829,-0.703014612197876,-0.1468538790941238,-0.9008650779724121,-0.05391722917556763,-0.2630486190319061,0.05375367403030396,XArbitraryZVertical,-0.1696182266907908,-0.1096610910980301,-0.09473831016596217,0.9747967894518162,-0.2459332495927811,0.309908390045166,-0.918408215045929,0,0,0,-1,-1,389475.412748125,unknown,2,2023-11-06T09:23:40.501+02:00,2023-11-06T09:23:03.878+02:00,9,0.5993428,0,0,7.403943,0,0,2023-11-06T09:23:25.206+02:00,720948276.6627376,0,-0.9899902,101.7212,1,0.7
2023-11-06T09:24:38.128+02:00,0,0,0,0,0,-1,0,-1,-1,-1,0,389533.0352436667,-0.3781585693359375,0.1339263916015625,-1.047256469726562,389533.0302656667,-0.2573417423119157,-0.2706214482301326,-0.3251557339191689,-0.8035768866539001,-0.06755001842975616,-0.8349653482437134,-0.1118966341018677,-0.2205336093902588,-0.0929446816444397,XArbitraryZVertical,-0.176138627166637,-0.1114391485944721,-0.1038121653100519,0.9725119568850005,-0.2533224821090698,0.3194563686847687,-0.913112998008728,0,0,0,-1,-1,389475.412748125,unknown,2,2023-11-06T09:23:40.501+02:00,2023-11-06T09:23:03.878+02:00,9,0.5993428,0,0,7.403943,0,0,2023-11-06T09:23:25.206+02:00,720948276.6627376,0,-0.9899902,101.7212,1,0.7
2023-11-06T09:24:38.148+02:00,0,0,0,0,0,-1,0,-1,-1,-1,0,389533.0551586667,-0.3675079345703125,0.18341064453125,-1.08245849609375,389533.0501796667,-0.2781707548697279,-0.2777231333904595,-0.3367367002474601,-0.8261950016021729,0.02655518241226673,-0.7535159587860107,-0.1220904290676117,-0.164683073759079,-0.167462170124054,XArbitraryZVertical,-0.1832765442880497,-0.1121323141007501,-0.1123904648816388,0.970156977982525,-0.2587689757347107,0.3304088413715363,-0.907672107219696,0,0,0,-1,-1,389475.412748125,unknown,2,2023-11-06T09:23:40.501+02:00,2023-11-06T09:23:03.878+02:00,9,0.5993428,0,0,7.403943,0,0,2023-11-06T09:23:25.206+02:00,720948276.6627376,0,-0.9899902,101.7212,1,0.7
2023-11-06T09:24:38.168+02:00,0,0,0,0,0,-1,0,-1,-1,-1,0,389533.0750726667,-0.2915496826171875,0.21270751953125,-1.06982421875,389533.0700946667,-0.2972475886328548,-0.2834614027519561,-0.3483811830143055,-0.7839276790618896,0.02711923979222775,-0.6596320867538452,-0.07273787260055542,-0.1464761197566986,-0.1758605241775513,XArbitraryZVertical,-0.1902821484835256,-0.1121792854678864,-0.120162651820368,0.9678685312848482,-0.2628792226314545,0.3413766920566559,-0.902417004108429,0,0,0,-1,-1,389475.412748125,unknown,2,2023-11-06T09:23:40.501+02:00,2023-11-06T09:23:03.878+02:00,9,0.5993428,0,0,7.403943,0,0,2023-11-06T09:23:25.206+02:00,720948276.6627376,0,-0.9899902,101.7212,1,0.7
2023-11-06T09:24:38.188+02:00,0,0,0,0,0,-1,0,-1,-1,-1,0,389533.0949876667,-0.2063446044921875,0.245330810546875,-1.0799560546875,389533.0900086667,-0.3141987425778033,-0.2888071164038027,-0.3587073152084462,-0.6467553377151489,0.02276710048317909,-0.5734298825263977,0.02058747410774231,-0.1284841299057007,-0.1747243404388428,XArbitraryZVertical,-0.1965158207552431,-0.1122303244417936,-0.1269869423780062,0.9657433424894323,-0.2666812539100647,0.3510641157627106,-0.8975718021392822,0,0,0,-1,-1,389475.412748125,unknown,2,2023-11-06T09:23:40.501+02:00,2023-11-06T09:23:03.878+02:00,9,0.5993428,0,0,7.403943,0,0,2023-11-06T09:23:25.206+02:00,720948276.6627376,0,-0.9899902,101.7212,1,0.7
2023-11-06T09:24:38.208+02:00,0,0,0,0,0,-1,0,-1,-1,-1,0,389533.1149016667,-0.127838134765625,0.2657928466796875,-1.130661010742188,389533.1099236667,-0.3274996619000963,-0.2936370082166521,-0.3662855206091513,-0.4465169310569763,-0.03609781339764595,-0.4004649817943573,0.1015953421592712,-0.09092262387275696,-0.2170014977455139,XArbitraryZVertical,-0.2012007796577914,-0.1125511107880558,-0.1322818837527643,0.9640290189701598,-0.2702355086803436,0.3581498265266418,-0.8937010169029236,0,0,0,-1,-1,389475.412748125,unknown,2,2023-11-06T09:23:40.501+02:00,2023-11-06T09:23:03.878+02:00,9,0.5993428,0,0,7.403943,0,0,2023-11-06T09:23:25.206+02:00,720948276.6627376,0,-0.9899902,101.7212,1,0.7
2023-11-06T09:24:38.228+02:00,0,0,0,0,0,-1,0,-1,-1,-1,0,389533.1348166667,-0.0735931396484375,0.2346343994140625,-1.143051147460938,389533.1298376667,-0.3374122602010958,-0.2981252105039895,-0.3713618207751849,-0.3018999397754669,-0.0568598173558712,-0.354492723941803,0.1746004819869995,-0.1080019176006317,-0.2516499757766724,XArbitraryZVertical,-0.2044839989259025,-0.1132316770635179,-0.1361625735400745,0.9627173621937317,-0.2737063467502594,0.3628847599029541,-0.8907297849655151,0,0,0,-1,-1,389475.412748125,unknown,2,2023-11-06T09:23:40.501+02:00,2023-11-06T09:23:03.878+02:00,9,0.5993428,0,0,7.403943,0,0,2023-11-06T09:23:25.206+02:00,720948276.6627376,0,-0.9899902,101.7212,1,0.7
2023-11-06T09:24:38.248+02:00,0,0,0,0,0,-1,0,-1,-1,-1,0,389533.1547316667,0.01507568359375,0.16546630859375,-1.143630981445312,389533.1497526667,-0.3457182125044561,-0.3028854137762026,-0.3741600127829788,-0.267366349697113,-0.104606568813324,-0.3019010424613953,0.2470759451389313,-0.1641357839107513,-0.2606495022773743,XArbitraryZVertical,-0.2066176574258611,-0.1143988678565175,-0.1394229209828208,0.9616565182072273,-0.2776392996311188,0.3654907941818237,-0.8884440660476685,0,0,0,-1,-1,389475.412748125,unknown,2,2023-11-06T09:23:40.501+02:00,2023-11-06T09:23:03.878+02:00,9,0.5993428,0,0,7.403943,0,0,2023-11-06T09:23:25.206+02:00,720948276.6627376,0,-0.9899902,101.7212,1,0.7
2023-11-06T09:24:38.268+02:00,0,0,0,0,0,-1,0,-1,-1,-1,0,389533.1746456667,0.10931396484375,0.0705108642578125,-1.143814086914062,389533.1696666667,-0.354230340850095,-0.3079112157475988,-0.3799278007240303,-0.5352428555488586,-0.08124798536300659,-0.2814668118953705,0.3442472219467163,-0.2472266852855682,-0.2501789927482605,XArbitraryZVertical,-0.2102035393132046,-0.1153583365685431,-0.1424719259524434,0.9603170089862476,-0.2814573645591736,0.3708534240722656,-0.8850138783454895,0,0,0,-1,-1,389475.412748125,unknown,2,2023-11-06T09:23:40.501+02:00,2023-11-06T09:23:03.878+02:00,9,0.5993428,0,0,7.403943,0,0,2023-11-06T09:23:25.206+02:00,720948276.6627376,0,-0.9899902,101.7212,1,0.7
2023-11-06T09:24:38.294+02:00,0,0,0,0,0,-1,0,-1,-1,-1,0,389533.1945606667,0.153839111328125,0.04351806640625,-1.175643920898438,389533.1895816667,-0.3638470742902161,-0.3127196635551651,-0.3899498808533383,-0.6452252268791199,-0.03601658716797829,-0.2576438188552856,0.4278623759746552,-0.3398283123970032,-0.276043176651001,XArbitraryZVertical,-0.2158601256490614,-0.1156272700537374,-0.1456560960032624,0.9585505689011027,-0.2845518589019775,0.3801420629024506,-0.8800694942474365,0,0,0,-1,-1,389475.412748125,unknown,2,2023-11-06T09:23:40.501+02:00,2023-11-06T09:23:03.878+02:00,9,0.5993428,0,0,7.403943,0,0,2023-11-06T09:23:25.206+02:00,720948276.6627376,0,-0.9899902,101.7212,1,0.7
2023-11-06T09:24:38.308+02:00,0,0,0,0,0,-1,0,-1,-1,-1,0,389533.2144746667,0.0827484130859375,0.189849853515625,-1.32574462890625,389533.2094956667,-0.371124525591587,-0.3148621336142483,-0.3986322700197606,-0.3176456093788147,0.1095195710659027,-0.0849933922290802,0.4224582314491272,-0.3005727231502533,-0.3477430939674377,XArbitraryZVertical,-0.2205467627758415,-0.1149605008693625,-0.1481003383569371,0.957188372582828,-0.2854038178920746,0.3881582021713257,-0.8762864470481873,0,0,0,-1,-1,389475.412748125,unknown,2,2023-11-06T09:23:40.501+02:00,2023-11-06T09:23:03.878+02:00,9,0.5993428,0,0,7.403943,0,0,2023-11-06T09:23:25.206+02:00,720948276.6627376,0,-0.9899902,101.7212,1,0.7
2023-11-06T09:24:38.327+02:00,0,0,0,0,0,-1,0,-1,-1,-1,0,389533.2343896667,-0.0419769287109375,0.3820953369140625,-1.458999633789062,389533.2294106667,-0.371384451752393,-0.3103797174300185,-0.4004089011570405,0.1319610625505447,0.374592512845993,0.1126688793301582,0.2865567803382874,-0.06920772790908813,-0.5308922529220581,XArbitraryZVertical,-0.2210693308649614,-0.1126007455440057,-0.1485542783464218,0.9572779181626084,-0.2812620103359222,0.3897949457168579,-0.8768988251686096,0,0,0,-1,-1,389475.412748125,unknown,2,2023-11-06T09:23:40.501+02:00,2023-11-06T09:23:03.878+02:00,9,0.5993428,0,0,7.403943,0,0,2023-11-06T09:23:25.206+02:00,720948276.6627376,0,-0.9899902,101.7212,1,0.7
2023-11-06T09:24:38.347+02:00,0,0,0,0,0,-1,0,-1,-1,-1,0,389533.2543036667,0.0056304931640625,0.357269287109375,-1.55267333984375,389533.2493256667,-0.3648420312563102,-0.2980784052481967,-0.3961265643048187,0.4344491958618164,0.5824291110038757,0.3362286686897278,0.240744560956955,-0.01037472486495972,-0.636598527431488,XArbitraryZVertical,-0.2177714669080174,-0.1078687408145866,-0.1471591946939911,0.9587929938047047,-0.2709417343139648,0.3858477473258972,-0.8818798661231995,0,0,0,-1,-1,389475.412748125,unknown,2,2023-11-06T09:23:40.501+02:00,2023-11-06T09:23:03.878+02:00,9,0.5993428,0,0,7.403943,0,0,2023-11-06T09:23:25.206+02:00,720948276.6627376,0,-0.9899902,101.7212,1,0.7
2023-11-06T09:24:38.367+02:00,0,0,0,0,0,-1,0,-1,-1,-1,0,389533.2742186667,0.038482666015625,0.3251953125,-1.622894287109375,389533.2692396667,-0.3525314384016403,-0.2806957151522547,-0.3887408462543508,0.5647760629653931,0.6516861915588379,0.5506437420845032,0.2853157520294189,-0.04183477163314819,-0.6801962852478027,XArbitraryZVertical,-0.2123543334355704,-0.1015902399407188,-0.1437601728694555,0.9612065966406076,-0.2563546001911163,0.3790235221385956,-0.8891701102256775,0,0,0,-1,-1,389475.412748125,unknown,2,2023-11-06T09:23:40.501+02:00,2023-11-06T09:23:03.878+02:00,9,0.5993428,0,0,7.403943,0,0,2023-11-06T09:23:25.206+02:00,720948276.6627376,0,-0.9899902,101.7212,1,0.7
2023-11-06T09:24:38.387+02:00,0,0,0,0,0,-1,0,-1,-1,-1,0,389533.2941326667,-0.0817413330078125,0.4017333984375,-1.868026733398438,389533.2891546667,-0.3362694177759453,-0.2616208024865366,-0.3825570373352992,0.4244608283042908,0.6857346892356873,0.7365103363990784,0.24954754114151,-0.01823708415031433,-0.8308905363082886,XArbitraryZVertical,-0.2072618557794524,-0.09471032543761852,-0.138439637990463,0.9637982087515989,-0.2399497926235199,0.3732938766479492,-0.8961449265480042,0,0,0,-1,-1,389475.412748125,unknown,2,2023-11-06T09:23:40.501+02:00,2023-11-06T09:23:03.878+02:00,9,0.5993428,0,0,7.403943,0,0,2023-11-06T09:23:25.206+02:00,720948276.6627376,0,-0.9899902,101.7212,1,0.7
2023-11-06T09:24:38.407+02:00,0,0,0,0,0,-1,0,-1,-1,-1,0,389533.3140476667,-0.3183746337890625,0.670166015625,-2.2979736328125,389533.3090686667,-0.3160338736723703,-0.2387078176296533,-0.3774952510786608,0.6018544435501099,0.857675313949585,0.9315953850746155,0.02114500105381012,0.1198864281177521,-1.182888984680176,XArbitraryZVertical,-0.2023773251675367,-0.08618365271349424,-0.1314030623575702,0.9666172532588838,-0.21979920566082,0.3685932457447052,-0.9032316207885742,0,0,0,-1,-1,389475.412748125,unknown,2,2023-11-06T09:23:40.501+02:00,2023-11-06T09:23:03.878+02:00,9,0.5993428,0,0,7.403943,0,0,2023-11-06T09:23:25.206+02:00,720948276.6627376,0,-0.9899902,101.7212,1,0.7
2023-11-06T09:24:38.427+02:00,0,0,0,0,0,-1,0,-1,-1,-1,0,389533.3339616667,-0.4879608154296875,0.9881439208984375,-2.499588012695312,389533.3289836667,-0.2905279939711403,-0.2093810911061417,-0.3657806865083794,1.126791596412659,1.156344532966614,1.146556377410889,-0.2257417142391205,0.5049619674682617,-1.511858820915222,XArbitraryZVertical,-0.1938460522326426,-0.0754917613210436,-0.1227547571030862,0.9703896075276532,-0.1941038966178894,0.3576784431934357,-0.9134494066238403,0,0,0,-1,-1,389475.412748125,unknown,2,2023-11-06T09:23:40.501+02:00,2023-11-06T09:23:03.878+02:00,9,0.5993428,0,0,7.403943,0,0,2023-11-06T09:23:25.206+02:00,720948276.6627376,0,-0.9899902,101.7212,1,0.7
2023-11-06T09:24:38.447+02:00,0,0,0,0,0,-1,0,-1,-1,-1,0,389533.3538766667,-0.536224365234375,0.967742919921875,-2.2396240234375,389533.3488976667,-0.2600769269480827,-0.1733050058690389,-0.3434181178997329,1.523458003997803,1.415784120559692,1.214698076248169,-0.3689410984516144,0.704308032989502,-1.520417451858521,XArbitraryZVertical,-0.1798455367492061,-0.06247792584363165,-0.1126233311691687,0.975227228093884,-0.1623699516057968,0.336707592010498,-0.9275041818618774,0,0,0,-1,-1,389475.412748125,unknown,2,2023-11-06T09:23:40.501+02:00,2023-11-06T09:23:03.878+02:00,9,0.5993428,0,0,7.403943,0,0,2023-11-06T09:23:25.206+02:00,720948276.6627376,0,-0.9899902,101.7212,1,0.7
2023-11-06T09:24:38.467+02:00,0,0,0,0,0,-1,0,-1,-1,-1,0,389533.3737906667,-0.4733428955078125,0.5559844970703125,-1.6529541015625,389533.3688126667,-0.2308868168661721,-0.1340406369254782,-0.3193102514929433,1.222728371620178,1.53513503074646,1.123543977737427,-0.390846312046051,0.4593884348869324,-1.012082576751709,XArbitraryZVertical,-0.1651810008123327,-0.04740726335442008,-0.1028910192598188,0.9797353019703936,-0.1268844157457352,0.3139117658138275,-0.9409355521202087,0,0,0,-1,-1,389475.412748125,unknown,2,2023-11-06T09:23:40.501+02:00,2023-11-06T09:23:03.878+02:00,9,0.5993428,0,0,7.403943,0,0,2023-11-06T09:23:25.206+02:00,720948276.6627376,0,-0.9899902,101.7212,1,0.7
2023-11-06T09:24:38.487+02:00,0,0,0,0,0,-1,0,-1,-1,-1,0,389533.3937056667,-0.3321380615234375,0.3332977294921875,-1.034774780273438,389533.3887266667,-0.2077890287762039,-0.09804410411011522,-0.3035529938535637,0.548194408416748,1.292814016342163,0.8581832051277161,-0.3239466547966003,0.1082834303379059,-0.3948458433151245,XArbitraryZVertical,-0.1552220361883913,-0.03251670537571954,-0.0950233932166315,0.9827610233725682,-0.09341175109148026,0.2989126443862915,-0.9496975541114807,0,0,0,-1,-1,389475.412748125,unknown,2,2023-11-06T09:23:40.501+02:00,2023-11-06T09:23:03.878+02:00,9,0.5993428,0,0,7.403943,0,0,2023-11-06T09:23:25.206+02:00,720948276.6627376,0,-0.9899902,101.7212,1,0.7
2023-11-06T09:24:38.507+02:00,0,0,0,0,0,-1,0,-1,-1,-1,0,389533.4136196667,-0.1389007568359375,0.3662109375,-0.52618408203125,389533.4086416667,-0.1928284389483538,-0.07337051185264117,-0.3015216254753154,-0.1820162236690521,0.6891118288040161,0.5509320497512817,-0.1578466594219208,0.02709266543388367,0.1893009543418884,XArbitraryZVertical,-0.1528829127911502,-0.0216442644632403,-0.0896260025005019,0.9839337197124081,-0.06999760866165161,0.2969735264778137,-0.9523167014122009,0,0,0,-1,-1,389475.412748125,unknown,2,2023-11-06T09:23:40.501+02:00,2023-11-06T09:23:03.878+02:00,9,0.5993428,0,0,7.403943,0,0,2023-11-06T09:23:25.206+02:00,720948276.6627376,0,-0.9899902,101.7212,1,0.7
2023-11-06T09:24:38.526+02:00,0,0,0,0,0,-1,0,-1,-1,-1,0,389533.4335346667,-0.0496826171875,0.53631591796875,-0.0608062744140625,389533.4285556667,-0.1865851069093316,-0.06685345094570629,-0.3118001636655053,-0.8271939754486084,-0.2660617828369141,0.1092613860964775,-0.01942525804042816,0.1431176960468292,0.6364395618438721,XArbitraryZVertical,-0.1575833640655422,-0.01841522504722545,-0.08680946435317827,0.9835103185079984,-0.06358258426189423,0.3067725002765656,-0.9496567249298096,0,0,0,-1,-1,389475.412748125,unknown,2,2023-11-06T09:23:40.501+02:00,2023-11-06T09:23:03.878+02:00,9,0.5993428,0,0,7.403943,0,0,2023-11-06T09:23:25.206+02:00,720948276.6627376,0,-0.9899902,101.7212,1,0.7
2023-11-06T09:24:38.547+02:00,0,0,0,0,0,-1,0,-1,-1,-1,0,389533.4534496667,-0.0735931396484375,0.631500244140625,0.468292236328125,389533.4484706667,-0.1887198871440151,-0.08125957093416197,-0.3296735805448107,-0.9191023707389832,-1.102139115333557,-0.165842205286026,0.02874904125928879,0.2720757722854614,1.177980899810791,XArbitraryZVertical,-0.1670017483186587,-0.02444185946567104,-0.08623062595464445,0.9818743860313647,-0.07679900527000427,0.3237341940402985,-0.9430260062217712,0,0,0,-1,-1,389475.412748125,unknown,2,2023-11-06T09:23:40.501+02:00,2023-11-06T09:23:03.878+02:00,9,0.5993428,0,0,7.403943,0,0,2023-11-06T09:23:25.206+02:00,720948276.6627376,0,-0.9899902,101.7212,1,0.7
2023-11-06T09:24:38.570+02:00,0,0,0,0,0,-1,0,-1,-1,-1,0,389533.4733636667,-0.127593994140625,0.5212554931640625,0.7637481689453125,389533.4683846667,-0.198332143508433,-0.1151456289003803,-0.3498327509633309,-1.270262479782104,-1.994840025901794,-0.5257116556167603,0.00826195627450943,0.3045676648616791,1.553829908370972,XArbitraryZVertical,-0.1784937489754755,-0.0391839836523729,-0.08736698134208179,0.9792708938631788,-0.1079323887825012,0.3427406847476959,-0.9332091808319092,0,0,0,-1,-1,389475.412748125,unknown,2,2023-11-06T09:23:40.501+02:00,2023-11-06T09:23:03.878+02:00,9,0.5993428,0,0,7.403943,0,0,2023-11-06T09:23:25.206+02:00,720948276.6627376,0,-0.9899902,101.7212,1,0.7
2023-11-06T09:24:38.586+02:00,0,0,0,0,0,-1,0,-1,-1,-1,0,389533.4932786667,-0.2862396240234375,0.147491455078125,1.217025756835938,389533.4882996667,-0.2179571819888839,-0.1700180886124343,-0.3807360619839575,-2.141651630401611,-2.746313095092773,-0.8651788234710693,-0.02345803380012512,-0.06174364686012268,1.917691111564636,XArbitraryZVertical,-0.1964864213863333,-0.06237238343795776,-0.09044174884029008,0.9743321084958488,-0.1570839881896973,0.371603935956955,-0.9150055646896362,0,0,0,-1,-1,389475.412748125,unknown,2,2023-11-06T09:23:40.501+02:00,2023-11-06T09:23:03.878+02:00,9,0.5993428,0,0,7.403943,0,0,2023-11-06T09:23:25.206+02:00,720948276.6627376,0,-0.9899902,101.7212,1,0.7
2023-11-06T09:24:38.606+02:00,0,0,0,0,0,-1,0,-1,-1,-1,0,389533.5131926667,-0.5680389404296875,0.052520751953125,1.269546508789062,389533.5082146667,-0.252343758119338,-0.2421819207173005,-0.4280517907522842,-3.167381286621094,-3.083844900131226,-1.277331709861755,-0.2089249640703201,-0.3356161117553711,2.182161092758179,XArbitraryZVertical,-0.2240181340092214,-0.09056925136257327,-0.09661338222879995,0.9655458524890086,-0.2181838303804398,0.4150991439819336,-0.8832261562347412,0,0,0,-1,-1,389475.412748125,unknown,2,2023-11-06T09:23:40.501+02:00,2023-11-06T09:23:03.878+02:00,9,0.5993428,0,0,7.403943,0,0,2023-11-06T09:23:25.206+02:00,720948276.6627376,0,-0.9899902,101.7212,1,0.7
2023-11-06T09:24:38.626+02:00,0,0,0,0,0,-1,0,-1,-1,-1,0,389533.5331075,-0.686553955078125,-0.158660888671875,1.183609008789062,389533.5281286667,-0.3082235057013996,-0.3296117384366007,-0.4950555516373398,-4.673287391662598,-3.139804601669312,-1.659493923187256,-0.3825730085372925,-0.4817028343677521,2.054955005645752,XArbitraryZVertical,-0.263239796354876,-0.1200755969274415,-0.1070875297217644,0.9512196470383159,-0.2848159372806549,0.4750805199146271,-0.8325732946395874,0,0,0,-1,-1,389475.412748125,unknown,2,2023-11-06T09:23:40.501+02:00,2023-11-06T09:23:03.878+02:00,9,0.5993428,0,0,7.403943,0,0,2023-11-06T09:23:25.206+02:00,720948276.6627376,0,-0.9899902,101.7212,1,0.7
2023-11-06T09:24:38.646+02:00,0,0,0,0,0,-1,0,-1,-1,-1,0,389533.5530215,-0.7496795654296875,-0.4249420166015625,0.9023284912109375,389533.5480435,-0.3947109755707847,-0.435586539897274,-0.5688634929830634,-5.157116413116455,-3.080154895782471,-2.564008712768555,-0.343818187713623,-0.9015288949012756,1.815203189849854,XArbitraryZVertical,-0.3093297877670004,-0.1496463522784431,-0.1242964124881391,0.9308445327626089,-0.3554921448230743,0.5386748909950256,-0.7638421058654785,0,0,0,-1,-1,389475.412748125,unknown,2,2023-11-06T09:23:40.501+02:00,2023-11-06T09:23:03.878+02:00,9,0.5993428,0,0,7.403943,0,0,2023-11-06T09:23:25.206+02:00,720948276.6627376,0,-0.9899902,101.7212,1,0.7
2023-11-06T09:24:38.666+02:00,0,0,0,0,0,-1,0,-1,-1,-1,0,389533.5729365,-0.7347564697265625,-0.6231689453125,0.715606689453125,389533.5679575,-0.5249291740775999,-0.5692094082688298,-0.63869048516399,-6.249098300933838,-2.870614051818848,-3.515188217163086,-0.3191836774349213,-1.038405299186707,1.521423935890198,XArbitraryZVertical,-0.36016463424204,-0.1792728852239332,-0.151303652989192,0.902911885733976,-0.4327237010002136,0.5961445569992065,-0.6762853264808655,0,0,0,-1,-1,389475.412748125,unknown,2,2023-11-06T09:23:40.501+02:00,2023-11-06T09:23:03.878+02:00,9,0.5993428,0,0,7.403943,0,0,2023-11-06T09:23:25.206+02:00,720948276.6627376,0,-0.9899902,101.7212,1,0.7
2023-11-06T09:24:38.686+02:00,0,0,0,0,0,-1,0,-1,-1,-1,0,389533.5928505,-0.8012847900390625,-0.8267669677734375,0.58978271484375,389533.5878725,-0.7138033639293121,-0.7398180346672769,-0.7001494569387631,-7.680760860443115,-2.384223461151123,-4.510350227355957,-0.2335131168365479,-1.409682273864746,1.200607299804688,XArbitraryZVertical,-0.4182670251760678,-0.206483382295539,-0.1898043500572727,0.8639395838799243,-0.5155561566352844,0.6443319916725159,-0.5648345947265625,0,0,0,-1,-1,389475.412748125,unknown,2,2023-11-06T09:23:40.501+02:00,2023-11-06T09:23:03.878+02:00,9,0.5993428,0,0,7.403943,0,0,2023-11-06T09:23:25.206+02:00,720948276.6627376,0,-0.9899902,101.7212,1,0.7
2023-11-06T09:24:38.706+02:00,0,0,0,0,0,-1,0,-1,-1,-1,0,389533.6127655,-0.9467926025390625,-0.8442230224609375,0.592071533203125,389533.6077865,-0.9633577366213352,-0.943836605104766,-0.73459785960914,-8.564935684204102,-1.541442155838013,-5.44109582901001,-0.272311806678772,-1.528473615646362,1.032349109649658,XArbitraryZVertical,-0.4800059883687418,-0.227825634072205,-0.2404399549672253,0.8123289819339771,-0.6009639501571655,0.6702888011932373,-0.4353794753551483,0,0,0,-1,-1,389475.412748125,unknown,2,2023-11-06T09:23:40.501+02:00,2023-11-06T09:23:03.878+02:00,9,0.5993428,0,0,7.403943,0,0,2023-11-06T09:23:25.206+02:00,720948276.6627376,0,-0.9899902,101.7212,1,0.7
2023-11-06T09:24:38.726+02:00,0,0,0,0,0,-1,0,-1,-1,-1,0,389533.6326795,-1.087448120117188,-0.5299835205078125,0.6838531494140625,389533.6277015,-1.246351205064373,-1.15686267956712,-0.7220917974112367,-9.230213165283203,-0.9158757328987122,-6.124782562255859,-0.3234039545059204,-1.390112400054932,0.8994265794754028,XArbitraryZVertical,-0.5386856642401727,-0.2426975682262739,-0.3003438726249295,0.7488052514533646,-0.6870483160018921,0.6609558463096619,-0.3018313050270081,0,0,0,-1,-1,389475.412748125,unknown,2,2023-11-06T09:23:40.501+02:00,2023-11-06T09:23:03.878+02:00,9,0.5993428,0,0,7.403943,0,0,2023-11-06T09:23:25.206+02:00,720948276.6627376,0,-0.9899902,101.7212,1,0.7
2023-11-06T09:24:38.746+02:00,0,0,0,0,0,-1,0,-1,-1,-1,0,389533.6525945,-1.461990356445312,-0.1615142822265625,1.085205078125,389533.6476155,-1.535053564585909,-1.361499777060586,-0.6596326596246894,-10.2612190246582,-1.258912444114685,-6.613804340362549,-0.4465097188949585,-0.9776643514633179,1.002136707305908,XArbitraryZVertical,-0.5945737092953176,-0.2537511483211961,-0.3638170366890358,0.6706187843328451,-0.7729726433753967,0.6128265857696533,-0.1641849130392075,0,0,0,-1,-1,389475.412748125,unknown,2,2023-11-06T09:23:40.501+02:00,2023-11-06T09:23:03.878+02:00,9,0.5993428,0,0,7.403943,0,0,2023-11-06T09:23:25.206+02:00,720948276.6627376,0,-0.9899902,101.7212,1,0.7
2023-11-06T09:24:38.765+02:00,0,0,0,0,0,-1,0,-1,-1,-1,0,389533.6725085001,-3.072586059570312,0.3840789794921875,1.40936279296875,389533.6675305,-1.817523769421886,-1.54652369069947,-0.5469415680535222,-11.22306632995605,-0.3205915987491608,-7.000202178955078,-1.137495994567871,-0.3820922374725342,1.374809980392456,XArbitraryZVertical,-0.6492544077171361,-0.2609671844387321,-0.4275163590268453,0.5723587490156848,-0.8538674712181091,0.5200774073600769,-0.02072968520224094,0,0,0,-1,-1,389475.412748125,unknown,2,2023-11-06T09:23:40.501+02:00,2023-11-06T09:23:03.878+02:00,9,0.5993428,0,0,7.403943,0,0,2023-11-06T09:23:25.206+02:00,720948276.6627376,0,-0.9899902,101.7212,1,0.7
2023-11-06T09:24:38.787+02:00,0,0,0,0,0,-1,0,-1,-1,-1,0,389533.6924235,-6.2965087890625,1.729629516601562,1.711105346679688,389533.6874445,-2.059889350949765,-1.615888676593367,-0.4180738838095326,-10.46679592132568,3.830456256866455,-5.673513889312744,-3.718144416809082,0.2883807420730591,1.432193994522095,XArbitraryZVertical,-0.6800313351480279,-0.2411529313433782,-0.5022327418574846,0.4766183149971503,-0.9129438400268555,0.4060009717941284,0.04119470715522766,0,0,0,-1,-1,389475.412748125,unknown,2,2023-11-06T09:23:40.501+02:00,2023-11-06T09:23:03.878+02:00,9,0.5993428,0,0,7.403943,0,0,2023-11-06T09:23:25.206+02:00,720948276.6627376,0,-0.9899902,101.7212,1,0.7
2023-11-06T09:24:38.805+02:00,0,0,0,0,0,-1,0,-1,-1,-1,0,389533.7123375,-6.762344360351562,4.875869750976562,1.150314331054688,389533.7073595,-2.256846098899226,-1.632608467273617,-0.2929226749390609,-7.923300266265869,1.869920134544373,-5.57237720489502,-6.337606906890869,3.339162826538086,1.591416954994202,XArbitraryZVertical,-0.6942210693878978,-0.218238089762297,-0.5668403165635743,0.3861622432605238,-0.9555755853652954,0.288751631975174,0.05914151296019554,0,0,0,-1,-1,389475.412748125,unknown,2,2023-11-06T09:23:40.501+02:00,2023-11-06T09:23:03.878+02:00,9,0.5993428,0,0,7.403943,0,0,2023-11-06T09:23:25.206+02:00,720948276.6627376,0,-0.9899902,101.7212,1,0.7
2023-11-06T09:24:38.825+02:00,0,0,0,0,0,-1,0,-1,-1,-1,0,389533.7322525,-3.752197265625,3.633987426757812,0.2628326416015625,389533.7272735,-2.353936022799734,-1.638807050381014,-0.2045676071903683,-1.742081165313721,-0.4948576688766479,-2.179343938827515,-3.954877376556396,4.037151336669922,0.735979437828064,XArbitraryZVertical,-0.6980185195403674,-0.2145711891897262,-0.5984720671534189,0.3294851894137593,-0.9768852591514587,0.2031438052654266,0.06654129922389984,0,0,0,-1,-1,389475.412748125,unknown,2,2023-11-06T09:23:40.501+02:00,2023-11-06T09:23:03.878+02:00,9,0.5993428,0,0,7.403943,0,0,2023-11-06T09:23:25.206+02:00,720948276.6627376,0,-0.9899902,101.7212,1,0.7
2023-11-06T09:24:38.845+02:00,0,0,0,0,0,-1,0,-1,-1,-1,0,389533.7521675,-2.364837646484375,2.425216674804688,0.0013275146484375,389533.7471885,-2.345590660453084,-1.658582552109042,-0.1961749865935056,1.747255444526672,-1.308533191680908,1.296424031257629,-2.136299848556519,3.164730548858643,-0.2063226699829102,XArbitraryZVertical,-0.7021792001928094,-0.2234732823178941,-0.5916247160446051,0.3270844202332752,-0.9770423769950867,0.1949191242456436,0.08599187433719635,0,0,0,-1,-1,389475.412748125,unknown,2,2023-11-06T09:23:40.501+02:00,2023-11-06T09:23:03.878+02:00,9,0.5993428,0,0,7.403943,0,0,2023-11-06T09:23:25.206+02:00,720948276.6627376,0,-0.9899902,101.7212,1,0.7
2023-11-06T09:24:38.865+02:00,0,0,0,0,0,-1,0,-1,-1,-1,0,389533.7720815,-1.301849365234375,1.7913818359375,0.2113800048828125,389533.7671025,-2.306661179883104,-1.673217758834245,-0.2424549795139496,2.53406834602356,-0.7944507598876953,1.993840575218201,-0.7040439248085022,1.541651725769043,0.1063907146453857,XArbitraryZVertical,-0.7064891621897306,-0.2247199905677677,-0.5715514896645765,0.3517142511756279,-0.9656643271446228,0.2400865256786346,0.09925202280282974,0,0,0,-1,-1,389475.412748125,unknown,2,2023-11-06T09:23:40.501+02:00,2023-11-06T09:23:03.878+02:00,9,0.5993428,0,0,7.403943,0,0,2023-11-06T09:23:25.206+02:00,720948276.6627376,0,-0.9899902,101.7212,1,0.7
2023-11-06T09:24:38.885+02:00,0,0,0,0,0,-1,0,-1,-1,-1,0,389533.7919965,-0.79949951171875,1.7623291015625,0.548004150390625,389533.7870175,-2.254493502532854,-1.657987614266686,-0.2583103242243631,2.132706165313721,1.171964764595032,-0.6757559776306152,-0.1443173289299011,1.431259155273438,0.1579651832580566,XArbitraryZVertical,-0.6977079869066498,-0.235158357685647,-0.5644085509658403,0.3732923268353964,-0.9631503224372864,0.2554472982883453,0.08419177681207657,0,0,0,-1,-1,389475.412748125,unknown,2,2023-11-06T09:23:40.501+02:00,2023-11-06T09:23:03.878+02:00,9,0.5993428,0,0,7.403943,0,0,2023-11-06T09:23:25.206+02:00,720948276.6627376,0,-0.9899902,101.7212,1,0.7
2023-11-06T09:24:38.905+02:00,0,0,0,0,0,-1,0,-1,-1,-1,0,389533.8119105001,0.2858734130859375,1.930877685546875,0.7265472412109375,389533.8069325,-2.232683161223187,-1.618078700434008,-0.2400513211924218,-0.02657167613506317,1.826143741607666,-1.105613946914673,0.6706186532974243,1.762293219566345,0.7159466743469238,XArbitraryZVertical,-0.681776970675596,-0.2411117970625876,-0.5776431475869173,0.3786470160298213,-0.9702401161193848,0.2377524822950363,0.04590947180986404,0,0,0,-1,-1,389475.412748125,unknown,2,2023-11-06T09:23:40.501+02:00,2023-11-06T09:23:03.878+02:00,9,0.5993428,0,0,7.403943,0,0,2023-11-06T09:23:25.206+02:00,720948276.6627376,0,-0.9899902,101.7212,1,0.7
2023-11-06T09:24:38.925+02:00,0,0,0,0,0,-1,0,-1,-1,-1,0,389533.8318255,1.192352294921875,0.924224853515625,0.394439697265625,389533.8268465,-2.241024387378487,-1.591442255972887,-0.217020100026925,-0.7414559125900269,0.9580327868461609,-1.247216582298279,1.793016195297241,1.287090301513672,0.5413479804992676,XArbitraryZVertical,-0.6723623680718398,-0.240850479119656,-0.5926432529297208,0.3724162953607897,-0.976335346698761,0.2153205871582031,0.02016021497547626,0,0,0,-1,-1,389475.412748125,unknown,2,2023-11-06T09:23:40.501+02:00,2023-11-06T09:23:03.878+02:00,9,0.5993428,0,0,7.403943,0,0,2023-11-06T09:23:25.206+02:00,720948276.6627376,0,-0.9899902,101.7212,1,0.7
2023-11-06T09:24:38.945+02:00,0,0,0,0,0,-1,0,-1,-1,-1,0,389533.8517395,1.746047973632812,0.09637451171875,0.2071075439453125,389533.8467615,-2.270073094794244,-1.58609333541032,-0.190600541307484,-2.441486358642578,0.2166130095720291,-1.181570649147034,2.450205326080322,0.238316223025322,0.2840070724487305,XArbitraryZVertical,-0.6711636774516002,-0.2388493662580931,-0.604601777188946,0.3562961716347359,-0.9817757606506348,0.1894485950469971,0.01501940377056599,0,0,0,-1,-1,389475.412748125,unknown,2,2023-11-06T09:23:40.501+02:00,2023-11-06T09:23:03.878+02:00,9,0.5993428,0,0,7.403943,0,0,2023-11-06T09:23:25.206+02:00,720948276.6627376,0,-0.9899902,101.7212,1,0.7
2023-11-06T09:24:38.965+02:00,0,0,0,0,0,-1,0,-1,-1,-1,0,389533.8716545,2.133697509765625,-0.0959014892578125,-0.0714111328125,389533.8666755,-2.345495715262817,-1.601497575463736,-0.17470617424098,-4.878646373748779,-0.3182051479816437,-0.3404741287231445,3.005386114120483,-0.25569748878479,0.07107400894165039,XArbitraryZVertical,-0.6827723588995456,-0.2212159212373219,-0.6150191450275777,0.3265530888433988,-0.9843136072158813,0.1738187968730927,0.03022915497422218,0,0,0,-1,-1,389475.412748125,unknown,2,2023-11-06T09:23:40.501+02:00,2023-11-06T09:23:03.878+02:00,9,0.5993428,0,0,7.403943,0,0,2023-11-06T09:23:25.206+02:00,720948276.6627376,0,-0.9899902,101.7212,1,0.7
2023-11-06T09:24:38.984+02:00,0,0,0,0,0,-1,0,-1,-1,-1,0,389533.8915685,1.847991943359375,0.3354339599609375,-0.6595611572265625,389533.8865905,-2.449683402581619,-1.624740247526734,-0.1642939214063802,-5.098274707794189,-0.1642472594976425,-0.2253887504339218,2.994117021560669,-0.1085784286260605,-0.4217829704284668,XArbitraryZVertical,-0.6997442955362175,-0.1922336516488664,-0.6246503159605494,0.2884721077944629,-0.9850990772247314,0.1635558009147644,0.05319171026349068,0,0,0,-1,-1,389475.412748125,unknown,2,2023-11-06T09:23:40.501+02:00,2023-11-06T09:23:03.878+02:00,9,0.5993428,0,0,7.403943,0,0,2023-11-06T09:23:25.206+02:00,720948276.6627376,0,-0.9899902,101.7212,1,0.7
2023-11-06T09:24:39.004+02:00,0,0,0,0,0,-1,0,-1,-1,-1,0,389533.9114835,1.688873291015625,0.87420654296875,-1.01611328125,389533.9065045,-2.537760214094315,-1.639540793788237,-0.1593644357057347,-3.53660249710083,0.06977615505456924,0.2529352605342865,2.753352642059326,0.4835668802261353,-0.9477180242538452,XArbitraryZVertical,-0.7118620207913708,-0.1648102573814703,-0.6321549181004789,0.2578181914897922,-0.9849963188171387,0.1586907207965851,0.06781991571187973,0,0,0,-1,-1,389475.412748125,unknown,2,2023-11-06T09:23:40.501+02:00,2023-11-06T09:23:03.878+02:00,9,0.5993428,0,0,7.403943,0,0,2023-11-06T09:23:25.206+02:00,720948276.6627376,0,-0.9899902,101.7212,1,0.7
2023-11-06T09:24:39.024+02:00,0,0,0,0,0,-1,0,-1,-1,-1,0,389533.9313975,1.25872802734375,1.059738159179688,-1.073379516601562,389533.9264195,-2.593327009044347,-1.647084261629525,-0.1646516408479127,-2.0021653175354,0.07551153749227524,0.7137076258659363,2.491373062133789,0.845414400100708,-1.124621748924255,XArbitraryZVertical,-0.7189047318141532,-0.1441096461674701,-0.6357041729887487,0.2414303903428308,-0.9836063981056213,0.1639086902141571,0.07518320530653,0,0,0,-1,-1,389475.412748125,unknown,2,2023-11-06T09:23:40.501+02:00,2023-11-06T09:23:03.878+02:00,9,0.5993428,0,0,7.403943,0,0,2023-11-06T09:23:25.206+02:00,720948276.6627376,0,-0.9899902,101.7212,1,0.7
2023-11-06T09:24:39.044+02:00,0,0,0,0,0,-1,0,-1,-1,-1,0,389533.9513125001,0.84423828125,1.174224853515625,-1.024505615234375,389533.9463335,-2.625415989292339,-1.65125204645288,-0.1831076116731159,-1.132468819618225,0.05231460556387901,1.427138209342957,2.001250505447388,0.9066283702850342,-1.138137936592102,XArbitraryZVertical,-0.7234770114893837,-0.1268609479644996,-0.6357416877790369,0.2373176265963972,-0.9801016449928284,0.1820861101150513,0.07902537286281586,0,0,0,-1,-1,389475.412748125,unknown,2,2023-11-06T09:23:40.501+02:00,2023-11-06T09:23:03.878+02:00,9,0.5993428,0,0,7.403943,0,0,2023-11-06T09:23:25.206+02:00,720948276.6627376,0,-0.9899902,101.7212,1,0.7
2023-11-06T09:24:39.065+02:00,0,0,0,0,0,-1,0,-1,-1,-1,0,389533.9712265,0.5537567138671875,1.496368408203125,-0.95599365234375,389533.9662485,-2.646750739570717,-1.655321016624805,-0.2206579694708697,-0.6700257658958435,-0.07216953486204147,2.548398971557617,1.679972767829895,1.118118643760681,-1.078348755836487,XArbitraryZVertical,-0.7278305757741821,-0.1070103012906896,-0.6321515836502419,0.2433019174849694,-0.972270131111145,0.218871682882309,0.0823771059513092,0,0,0,-1,-1,389475.412748125,unknown,2,2023-11-06T09:23:40.501+02:00,2023-11-06T09:23:03.878+02:00,9,0.5993428,0,0,7.403943,0,0,2023-11-06T09:23:25.206+02:00,720948276.6627376,0,-0.9899902,101.7212,1,0.7
2023-11-06T09:24:39.084+02:00,0,0,0,0,0,-1,0,-1,-1,-1,0,389533.9911415,0.0771942138671875,1.732437133789062,-0.709686279296875,389533.9861625,-2.65963536625419,-1.664171815851461,-0.2805486091464576,0.1001817435026169,-0.5721516609191895,3.483226537704468,1.299124956130981,1.334170579910278,-0.9603372812271118,XArbitraryZVertical,-0.7333893964082158,-0.08329017555849955,-0.6227866792068929,0.2594984849188719,-0.9567176699638367,0.2768828570842743,0.0895945206284523,0,0,0,-1,-1,389475.412748125,unknown,2,2023-11-06T09:23:40.501+02:00,2023-11-06T09:23:03.878+02:00,9,0.5993428,0,0,7.403943,0,0,2023-11-06T09:23:25.206+02:00,720948276.6627376,0,-0.9899902,101.7212,1,0.7
2023-11-06T09:24:39.104+02:00,0,0,0,0,0,-1,0,-1,-1,-1,0,389534.0110565,-0.61260986328125,2.73309326171875,-0.3615570068359375,389534.0060775,-2.655591190444079,-1.687019378702629,-0.3571844625810445,1.153898000717163,-2.292059183120728,3.856122970581055,0.7103343605995178,1.681978344917297,-0.5856934785842896,XArbitraryZVertical,-0.7419214149140525,-0.06224095657754856,-0.6031193535658351,0.2862265668587912,-0.9305643439292908,0.3496377766132355,0.1086426451802254,0,0,0,-1,-1,389475.412748125,unknown,2,2023-11-06T09:23:40.501+02:00,2023-11-06T09:23:03.878+02:00,9,0.5993428,0,0,7.403943,0,0,2023-11-06T09:23:25.206+02:00,720948276.6627376,0,-0.9899902,101.7212,1,0.7
2023-11-06T09:24:39.124+02:00,0,0,0,0,0,-1,0,-1,-1,-1,0,389534.0309705,-2.366043090820312,4.399078369140625,-0.16448974609375,389534.0259915,-2.621256063883146,-1.732788707440334,-0.4220962983721989,2.673296213150024,-1.410540342330933,2.390421628952026,-0.409906804561615,3.324716567993164,-0.6622658967971802,XArbitraryZVertical,-0.7549139030782648,-0.06057721173770125,-0.570837079153997,0.3171441788547758,-0.9002891182899475,0.409673660993576,0.1471291929483414,0,0,0,-1,-1,389475.412748125,unknown,2,2023-11-06T09:23:40.501+02:00,2023-11-06T09:23:03.878+02:00,9,0.5993428,0,0,7.403943,0,0,2023-11-06T09:23:25.206+02:00,720948276.6627376,0,-0.9899902,101.7212,1,0.7
2023-11-06T09:24:39.144+02:00,0,0,0,0,0,-1,0,-1,-1,-1,0,389534.0508855,-5.140853881835938,4.045333862304688,0.2083892822265625,389534.0459065,-2.549897071755316,-1.689414779072544,-0.48778713021421,4.686343193054199,1.139241695404053,3.547358512878418,-2.858156204223633,3.7975172996521,0.0469505563378334,XArbitraryZVertical,-0.7408660904574766,-0.05819593727366312,-0.5636621746353695,0.3605765966086434,-0.8771645426750183,0.4686722457408905,0.1045386642217636,0,0,0,-1,-1,389475.412748125,unknown,2,2023-11-06T09:23:40.501+02:00,2023-11-06T09:23:03.878+02:00,9,0.5993428,0,0,7.403943,0,0,2023-11-06T09:23:25.206+02:00,720948276.6627376,0,-0.9899902,101.7212,1,0.7
2023-11-06T09:24:39.165+02:00,0,0,0,0,0,-1,0,-1,-1,-1,0,389534.0707995,-4.719482421875,2.83245849609375,1.057785034179688,389534.0658215,-2.435916096303741,-1.604646029757347,-0.5832853371082017,5.89026927947998,1.478809952735901,4.893093109130859,-4.713733196258545,3.010510206222534,0.5757259130477905,XArbitraryZVertical,-0.7152487324945715,-0.05042826549656624,-0.5532437561495068,0.4240254156243174,-0.8341795206069946,0.550769031047821,0.0282475184649229,0,0,0,-1,-1,389475.412748125,unknown,2,2023-11-06T09:23:40.501+02:00,2023-11-06T09:23:03.878+02:00,9,0.5993428,0,0,7.403943,0,0,2023-11-06T09:23:25.206+02:00,720948276.6627376,0,-0.9899902,101.7212,1,0.7
2023-11-06T09:24:39.183+02:00,0,0,0,0,0,-1,0,-1,-1,-1,0,389534.0907145,-3.978988647460938,1.985931396484375,1.014602661132812,389534.0857355,-2.264121079832205,-1.472637740237088,-0.6836834987676458,7.481124877929688,1.512816429138184,5.681798458099365,-3.31476902961731,1.740112066268921,1.156770706176758,XArbitraryZVertical,-0.6782948329631613,-0.04391363019480843,-0.5363271618469204,0.5003407458131487,-0.7715194225311279,0.6316529512405396,-0.07597542554140091,0,0,0,-1,-1,389475.412748125,unknown,2,2023-11-06T09:23:40.501+02:00,2023-11-06T09:23:03.878+02:00,9,0.5993428,0,0,7.403943,0,0,2023-11-06T09:23:25.206+02:00,720948276.6627376,0,-0.9899902,101.7212,1,0.7
2023-11-06T09:24:39.205+02:00,0,0,0,0,0,-1,0,-1,-1,-1,0,389534.1106285,-3.187957763671875,1.02313232421875,0.88433837890625,389534.1056505,-2.044140331977914,-1.302033777295917,-0.7739691814261612,6.667995452880859,0.7359219789505005,5.984684944152832,-3.000701904296875,0.8395033478736877,1.110002756118774,XArbitraryZVertical,-0.6353841778267649,-0.03657934080612978,-0.5092063331235073,0.57935982272106,-0.6894685029983521,0.6989792585372925,-0.1898977905511856,0,0,0,-1,-1,389475.412748125,unknown,2,2023-11-06T09:23:40.501+02:00,2023-11-06T09:23:03.878+02:00,9,0.5993428,0,0,7.403943,0,0,2023-11-06T09:23:25.206+02:00,720948276.6627376,0,-0.9899902,101.7212,1,0.7
2023-11-06T09:24:39.224+02:00,0,0,0,0,0,-1,0,-1,-1,-1,0,389534.1305435,-2.549453735351562,0.6406707763671875,0.84039306640625,389534.1255645,-1.8254909344832,-1.135128700719839,-0.8404394097914077,5.561861991882324,0.1414868235588074,5.489961624145508,-2.20557689666748,-0.07673865556716919,1.172685623168945,XArbitraryZVertical,-0.5987027904984403,-0.02800134169398175,-0.4749709086826238,0.6443397253497083,-0.6048175692558289,0.7449363470077515,-0.2815417945384979,0,0,0,-1,-1,389475.412748125,unknown,2,2023-11-06T09:23:40.501+02:00,2023-11-06T09:23:03.878+02:00,9,0.5993428,0,0,7.403943,0,0,2023-11-06T09:23:25.206+02:00,720948279.2187495,0,-1.080017,101.7217,1,0.7
2023-11-06T09:24:39.243+02:00,0,0,0,0,0,-1,0,-1,-1,-1,0,389534.1504575,-1.976821899414062,0.6598052978515625,0.7302093505859375,389534.1454795,-1.593840561218378,-0.9619175369233622,-0.8699009004674331,6.106796741485596,-0.2053904384374619,4.600411891937256,-1.740341424942017,-0.03491020202636719,1.085220336914062,XArbitraryZVertical,-0.5611556809339566,-0.02605747331214812,-0.4387872869701914,0.7013494062760567,-0.5290067195892334,0.7642650604248047,-0.3688506186008453,0,0,0,-1,-1,389534.0409275,unknown,2,2023-11-06T09:24:39.129+02:00,2023-11-06T09:23:03.878+02:00,9,0.5993428,0,0,7.403943,0,0,2023-11-06T09:23:25.206+02:00,720948279.2187495,0,-1.080017,101.7217,1,0.7
2023-11-06T09:24:39.263+02:00,0,0,0,0,0,-1,0,-1,-1,-1,0,389534.1703725,-1.387863159179688,-0.1140899658203125,1.215591430664062,389534.1653935,-1.37606490770579,-0.7967566081851044,-0.8574856470019857,5.213242530822754,0.1208108365535736,3.526138782501221,-1.223980188369751,-0.4263657927513123,1.419958710670471,XArbitraryZVertical,-0.5200423288495593,-0.02922509979825312,-0.4077345915174987,0.7499696043721751,-0.4679143726825714,0.7561997175216675,-0.4574037492275238,0,0,0,-1,-1,389534.0409275,unknown,2,2023-11-06T09:24:39.129+02:00,2023-11-06T09:23:03.878+02:00,9,0.5993428,0,0,7.403943,0,0,2023-11-06T09:23:25.206+02:00,720948279.2187495,0,-1.080017,101.7217,1,0.7
2023-11-06T09:24:39.283+02:00,0,0,0,0,0,-1,0,-1,-1,-1,0,389534.1902865,-0.8792877197265625,-1.060577392578125,1.5655517578125,389534.1853085,-1.227617389102104,-0.6838565368768219,-0.8341526184529777,3.026192665100098,-0.000591218238696456,2.157936334609985,-0.6841129064559937,-1.30974292755127,1.973259449005127,XArbitraryZVertical,-0.488548847969879,-0.03078350369512387,-0.385090417720906,0.7823540776288745,-0.4244381487369537,0.7407274842262268,-0.520744800567627,0,0,0,-1,-1,389534.0409275,unknown,2,2023-11-06T09:24:39.129+02:00,2023-11-06T09:23:03.878+02:00,9,0.5993428,0,0,7.403943,0,0,2023-11-06T09:23:25.206+02:00,720948279.2187495,0,-1.080017,101.7217,1,0.7
2023-11-06T09:24:39.303+02:00,0,0,0,0,0,-1,0,-1,-1,-1,0,389534.2102015,-0.3609771728515625,-1.5430908203125,1.406631469726562,389534.2052225,-1.160865029425989,-0.63838210731131,-0.8304448679366896,-0.09308855980634689,-0.3921984136104584,1.359283089637756,-0.239549309015274,-2.153728485107422,2.068008899688721,XArbitraryZVertical,-0.4777495531146461,-0.03006729526768154,-0.3705889569561531,0.7959366355146331,-0.4019607305526733,0.7382315397262573,-0.5417026281356812,0,0,0,-1,-1,389534.0409275,unknown,2,2023-11-06T09:24:39.129+02:00,2023-11-06T09:23:03.878+02:00,9,0.5993428,0,0,7.403943,0,0,2023-11-06T09:23:25.206+02:00,720948279.2187495,0,-1.080017,101.7217,1,0.7
2023-11-06T09:24:39.323+02:00,0,0,0,0,0,-1,0,-1,-1,-1,0,389534.2301155,0.0558319091796875,-1.24993896484375,0.915191650390625,389534.2251375,-1.156070748919678,-0.6504820520394895,-0.8710364726699565,-2.651783466339111,-1.260147094726562,1.302040815353394,0.2894675135612488,-2.215604305267334,1.697957158088684,XArbitraryZVertical,-0.4931073440954576,-0.0242199386907162,-0.3564996623445497,0.7932001832323655,-0.3900077342987061,0.7649968862533569,-0.5125170946121216,0,0,0,-1,-1,389534.0409275,unknown,2,2023-11-06T09:24:39.129+02:00,2023-11-06T09:23:03.878+02:00,9,0.5993428,0,0,7.403943,0,0,2023-11-06T09:23:25.206+02:00,720948279.2187495,0,-1.080017,101.7217,1,0.7
2023-11-06T09:24:39.343+02:00,0,0,0,0,0,-1,0,-1,-1,-1,0,389534.2500305,-0.106048583984375,-0.8524627685546875,0.5106658935546875,389534.2450515,-1.191922160753331,-0.7109198228610117,-0.9270876232785755,-2.798014163970947,-1.797113299369812,0.3556825518608093,0.4405466914176941,-1.820535898208618,1.140955567359924,XArbitraryZVertical,-0.5216406297372085,-0.02234982328105992,-0.3419033644189752,0.7813409644561549,-0.3916270434856415,0.7998754382133484,-0.4547830820083618,0,0,0,-1,-1,389534.0409275,unknown,2,2023-11-06T09:24:39.129+02:00,2023-11-06T09:23:03.878+02:00,9,0.5993428,0,0,7.403943,0,0,2023-11-06T09:23:25.206+02:00,720948279.2187495,0,-1.080017,101.7217,1,0.7
2023-11-06T09:24:39.363+02:00,0,0,0,0,0,-1,0,-1,-1,-1,0,389534.2699455,-0.4375762939453125,-0.6968231201171875,0.2688140869140625,389534.2649665,-1.254152258828626,-0.793170986092124,-0.9582662742017309,-2.042837858200073,-1.280622243881226,-0.8699195981025696,0.1093218922615051,-1.57762598991394,0.7737021446228027,XArbitraryZVertical,-0.5454611141039055,-0.02804520452793972,-0.3360953555900738,0.7672845190720768,-0.40969118475914,0.8181959986686707,-0.403371274471283,0,0,0,-1,-1,389534.0409275,unknown,2,2023-11-06T09:24:39.129+02:00,2023-11-06T09:23:03.878+02:00,9,0.5993428,0,0,7.403943,0,0,2023-11-06T09:23:25.206+02:00,720948279.2187495,0,-1.080017,101.7217,1,0.7
2023-11-06T09:24:39.383+02:00,0,0,0,0,0,-1,0,-1,-1,-1,0,389534.2898595,-0.4381256103515625,-0.7994232177734375,0.3152618408203125,389534.2848805,-1.333055019353483,-0.8761759373795536,-0.9622479707896844,-1.632580995559692,-0.565089225769043,-1.85264778137207,-0.03804683685302734,-1.529280066490173,0.62911057472229,XArbitraryZVertical,-0.5618776886419141,-0.03646925881363192,-0.3420178259561309,0.7523212292186259,-0.4392175674438477,0.8204787373542786,-0.3659269213676453,0,0,0,-1,-1,389534.0409275,unknown,2,2023-11-06T09:24:39.129+02:00,2023-11-06T09:23:03.878+02:00,9,0.5993428,0,0,7.403943,0,0,2023-11-06T09:23:25.206+02:00,720948279.2187495,0,-1.080017,101.7217,1,0.7
2023-11-06T09:24:39.403+02:00,0,0,0,0,0,-1,0,-1,-1,-1,0,389534.3097745,-0.272491455078125,-0.909210205078125,0.4409942626953125,389534.3047955,-1.417333675610298,-0.9512183858007486,-0.9425123246933138,-0.9550533294677734,-0.1081768050789833,-2.690563678741455,0.1232824325561523,-1.674790620803833,0.7182893753051758,XArbitraryZVertical,-0.5719549620825237,-0.04706029806208294,-0.3576939239897493,0.7366870737441777,-0.4785070419311523,0.8090372681617737,-0.3413057029247284,0,0,0,-1,-1,389534.0409275,unknown,2,2023-11-06T09:24:39.129+02:00,2023-11-06T09:23:03.878+02:00,9,0.5993428,0,0,7.403943,0,0,2023-11-06T09:23:25.206+02:00,720948279.2187495,0,-1.080017,101.7217,1,0.7
2023-11-06T09:24:39.423+02:00,0,0,0,0,0,-1,0,-1,-1,-1,0,389534.3296885,-0.2331695556640625,-0.8504791259765625,0.3946380615234375,389534.3247105,-1.488022333788144,-1.008423555582425,-0.9008451048405476,-0.3869703412055969,-0.01483779773116112,-3.089002847671509,0.2979000806808472,-1.699119806289673,0.7796794176101685,XArbitraryZVertical,-0.5750044619164822,-0.06186033082867568,-0.3790778742183699,0.7223871951186809,-0.5253171324729919,0.7838519811630249,-0.3310863375663757,0,0,0,-1,-1,389534.0409275,unknown,2,2023-11-06T09:24:39.129+02:00,2023-11-06T09:23:03.878+02:00,9,0.5993428,0,0,7.403943,0,0,2023-11-06T09:23:25.206+02:00,720948279.2187495,0,-1.080017,101.7217,1,0.7
2023-11-06T09:24:39.443+02:00,0,0,0,0,0,-1,0,-1,-1,-1,0,389534.3496035,-0.4464874267578125,-0.6554107666015625,0.13494873046875,389534.3446245,-1.550452617503542,-1.058140934564699,-0.8482378037370175,-0.4655952751636505,-0.2522588968276978,-3.643980264663696,0.2686442732810974,-1.503488421440125,0.61007159948349,XArbitraryZVertical,-0.5756971893951718,-0.07993578725477715,-0.4023015034591839,0.707344771876963,-0.5762920379638672,0.750116229057312,-0.32436603307724,0,0,0,-1,-1,389534.0409275,unknown,2,2023-11-06T09:24:39.129+02:00,2023-11-06T09:23:03.878+02:00,9,0.5993428,0,0,7.403943,0,0,2023-11-06T09:23:25.206+02:00,720948279.2187495,0,-1.080017,101.7217,1,0.7
2023-11-06T09:24:39.463+02:00,0,0,0,0,0,-1,0,-1,-1,-1,0,389534.3695175,-0.902679443359375,-0.316253662109375,0.1577301025390625,389534.3645395,-1.632192452775354,-1.133287566887837,-0.783833353375371,-1.757288217544556,-1.582666754722595,-4.607192516326904,0.002925515174865723,-1.224111676216125,0.3526707589626312,XArbitraryZVertical,-0.5821717998938368,-0.1051037847536457,-0.4275547756812221,0.6835393594392103,-0.6415058374404907,0.7059994339942932,-0.3000583648681641,0,0,0,-1,-1,389534.0409275,unknown,2,2023-11-06T09:24:39.129+02:00,2023-11-06T09:23:03.878+02:00,9,0.5993428,0,0,7.403943,0,0,2023-11-06T09:23:25.206+02:00,720948279.2187495,0,-1.080017,101.7217,1,0.7
2023-11-06T09:24:39.482+02:00,0,0,0,0,0,-1,0,-1,-1,-1,0,389534.3894325,-2.289566040039062,0.0309295654296875,0.389678955078125,389534.3844535,-1.752409746591461,-1.256424145036611,-0.7159379526833139,-4.025617122650146,-1.811324238777161,-4.794385433197021,-0.6487552523612976,-0.7990103960037231,0.555488646030426,XArbitraryZVertical,-0.6043624808604308,-0.1345227117861256,-0.4504238437048736,0.6432479417346627,-0.7175014615058899,0.6563253402709961,-0.2332992702722549,0,0,0,-1,-1,389534.0409275,unknown,2,2023-11-06T09:24:39.129+02:00,2023-11-06T09:23:03.878+02:00,9,0.5993428,0,0,7.403943,0,0,2023-11-06T09:23:25.206+02:00,720948279.2187495,0,-1.080017,101.7217,1,0.7
2023-11-06T09:24:39.502+02:00,0,0,0,0,0,-1,0,-1,-1,-1,0,389534.4093465,-5.46746826171875,1.76416015625,-0.329010009765625,389534.4043685001,-1.887977200800807,-1.37023910793665,-0.6488967027321256,-4.003450870513916,-1.184219837188721,-4.058441638946533,-2.982601165771484,-0.09347409009933472,0.4040406346321106,XArbitraryZVertical,-0.63053453010267,-0.1518672967868434,-0.4761042332943712,0.5938747289341059,-0.7807806134223938,0.6043077111244202,-0.1587250679731369,0,0,0,-1,-1,389534.0409275,unknown,2,2023-11-06T09:24:39.129+02:00,2023-11-06T09:23:03.878+02:00,9,0.5993428,0,0,7.403943,0,0,2023-11-06T09:23:25.206+02:00,720948279.2187495,0,-1.080017,101.7217,1,0.7
2023-11-06T09:24:39.522+02:00,0,0,0,0,0,-1,0,-1,-1,-1,0,389534.4292615,-5.691986083984375,4.411056518554688,-0.2515106201171875,389534.4242825,-1.997471978196355,-1.448654193246286,-0.5758657427780443,-3.428343534469604,-0.6638464331626892,-4.188066959381104,-5.677659034729004,3.071207284927368,-0.3728479743003845,XArbitraryZVertical,-0.6493336838535665,-0.165140666124926,-0.5019131159990705,0.546971196591419,-0.832472562789917,0.5445610880851746,-0.1021886542439461,0,0,0,-1,-1,389534.0409275,unknown,2,2023-11-06T09:24:39.129+02:00,2023-11-06T09:23:03.878+02:00,9,0.5993428,0,0,7.403943,0,0,2023-11-06T09:23:25.206+02:00,720948279.2187495,0,-1.080017,101.7217,1,0.7
2023-11-06T09:24:39.542+02:00,0,0,0,0,0,-1,0,-1,-1,-1,0,389534.4491755,-3.047348022460938,3.206924438476562,-0.13592529296875,389534.4441975,-2.067666452684433,-1.497366749468458,-0.5373982267760049,-2.070816040039062,-0.552173912525177,-0.2850011587142944,-3.093878746032715,3.258650779724121,-0.09072499722242355,XArbitraryZVertical,-0.6633782479255778,-0.1685765161609416,-0.5144629759793324,0.5165646032649449,-0.8567284345626831,0.5119026899337769,-0.06302251666784286,0,0,0,-1,-1,389534.0409275,unknown,2,2023-11-06T09:24:39.129+02:00,2023-11-06T09:23:03.878+02:00,9,0.5993428,0,0,7.403943,0,0,2023-11-06T09:23:25.206+02:00,720948279.2187495,0,-1.080017,101.7217,1,0.7
2023-11-06T09:24:39.562+02:00,0,0,0,0,0,-1,0,-1,-1,-1,0,389534.4690905,-1.6961669921875,2.496124267578125,-0.4206695556640625,389534.4641115,-2.104350094307342,-1.521488706854451,-0.5527112195640654,-1.255698084831238,0.150513619184494,1.168393731117249,-1.552350282669067,2.355511665344238,-0.2604345083236694,XArbitraryZVertical,-0.6740414597937402,-0.1571421348171639,-0.5119593265410048,0.5087947033970027,-0.8500698208808899,0.5249966979026794,-0.04194891825318336,0,0,0,-1,-1,389534.0409275,unknown,2,2023-11-06T09:24:39.129+02:00,2023-11-06T09:23:03.878+02:00,9,0.5993428,0,0,7.403943,0,0,2023-11-06T09:23:25.206+02:00,720948279.2187495,0,-1.080017,101.7217,1,0.7
2023-11-06T09:24:39.582+02:00,0,0,0,0,0,-1,0,-1,-1,-1,0,389534.4890055,-0.8632354736328125,1.914199829101562,-0.284088134765625,389534.4840265,-2.124392123634467,-1.505097454168787,-0.5701169958755653,-0.3965328633785248,2.765193223953247,0.3305794298648834,-0.3037619590759277,1.71486222743988,-0.3483116626739502,XArbitraryZVertical,-0.6728553085802285,-0.1401132680218958,-0.5182311698329797,0.5089895708928397,-0.840021550655365,0.5397305488586426,-0.05526801198720932,0,0,0,-1,-1,389534.0409275,unknown,2,2023-11-06T09:24:39.129+02:00,2023-11-06T09:23:03.878+02:00,9,0.5993428,0,0,7.403943,0,0,2023-11-06T09:23:25.206+02:00,720948279.2187495,0,-1.080017,101.7217,1,0.7
2023-11-06T09:24:39.602+02:00,0,0,0,0,0,-1,0,-1,-1,-1,0,389534.5089195,-0.1342315673828125,1.18768310546875,-0.2281036376953125,389534.5039405,-2.130294142967675,-1.443588400954523,-0.5611324299537295,-0.4230451583862305,3.008615732192993,-1.295064568519592,0.2849720120429993,0.9453936815261841,-0.1640888452529907,XArbitraryZVertical,-0.6561221171333227,-0.1256916534572349,-0.5423917858468351,0.5094276945549507,-0.8398120999336243,0.5321453213691711,-0.1074107512831688,0,0,0,-1,-1,389534.0409275,unknown,2,2023-11-06T09:24:39.129+02:00,2023-11-06T09:23:03.878+02:00,9,0.5993428,0,0,7.403943,0,0,2023-11-06T09:23:25.206+02:00,720948279.2187495,0,-1.080017,101.7217,1,0.7
2023-11-06T09:24:39.622+02:00,0,0,0,0,0,-1,0,-1,-1,-1,0,389534.5288345,1.039901733398438,0.80841064453125,-0.346588134765625,389534.5238555,-2.151292828472277,-1.4083445083319,-0.5271482206033307,-0.5766010880470276,1.818553686141968,-1.96422016620636,1.277823567390442,0.4852867722511292,-0.07716798782348633,XArbitraryZVertical,-0.6443262503391577,-0.1222822112899339,-0.567306480345474,0.4980502772518144,-0.8528662919998169,0.5030707716941833,-0.1397814899682999,0,0,0,-1,-1,389534.0409275,unknown,2,2023-11-06T09:24:39.129+02:00,2023-11-06T09:23:03.878+02:00,9,0.5993428,0,0,7.403943,0,0,2023-11-06T09:23:25.206+02:00,720948279.2187495,0,-1.080017,101.7217,1,0.7
2023-11-06T09:24:39.642+02:00,0,0,0,0,0,-1,0,-1,-1,-1,0,389534.548749,1.888336181640625,0.5084228515625,-0.2922210693359375,389534.54377,-2.167490800005485,-1.386339880341289,-0.502137352547399,-0.6959825158119202,1.033115029335022,-0.6602825522422791,2.419074296951294,0.1707993745803833,-0.2213089913129807,XArbitraryZVertical,-0.6364138966317718,-0.1207966194932237,-0.5841666086045397,0.4890141869947842,-0.8616859912872314,0.4813001453876495,-0.160771057009697,0,0,0,-1,-1,389534.0409275,unknown,2,2023-11-06T09:24:39.129+02:00,2023-11-06T09:23:03.878+02:00,9,0.5993428,0,0,7.403943,0,0,2023-11-06T09:23:25.206+02:00,720948279.2187495,0,-1.080017,101.7217,1,0.7
2023-11-06T09:24:39.662+02:00,0,0,0,0,0,-1,0,-1,-1,-1,0,389534.568664,1.421401977539062,0.213348388671875,-0.1494140625,389534.563685,-2.204579453602577,-1.391663059916743,-0.5030638469878334,-2.633774995803833,0.5477712154388428,-0.06121762469410896,2.687407970428467,-0.1348984241485596,-0.01078300178050995,XArbitraryZVertical,-0.6402104869309581,-0.1099061225001831,-0.5912236172028558,0.4780226706337907,-0.8620903491973877,0.4821120500564575,-0.1561023592948914,0,0,0,-1,-1,389534.0409275,unknown,2,2023-11-06T09:24:39.129+02:00,2023-11-06T09:23:03.878+02:00,9,0.5993428,0,0,7.403943,0,0,2023-11-06T09:23:25.206+02:00,720948279.2187495,0,-1.080017,101.7217,1,0.7
2023-11-06T09:24:39.681+02:00,0,0,0,0,0,-1,0,-1,-1,-1,0,389534.588578,0.9987335205078125,0.1611328125,-0.423919677734375,389534.5836,-2.279527736007006,-1.411242222474885,-0.5102381707584592,-3.623118877410889,1.078486800193787,-0.3184362947940826,1.924151182174683,-0.3313722312450409,-0.1242064833641052,XArbitraryZVertical,-0.6503815583819887,-0.08765338046239968,-0.6008228939165834,0.4564346905494063,-0.8615443706512451,0.4883850812911987,-0.138641431927681,0,0,0,-1,-1,389534.0409275,unknown,2,2023-11-06T09:24:39.129+02:00,2023-11-06T09:23:03.878+02:00,9,0.5993428,0,0,7.403943,0,0,2023-11-06T09:23:25.206+02:00,720948279.2187495,0,-1.080017,101.7217,1,0.7
2023-11-06T09:24:39.701+02:00,0,0,0,0,0,-1,0,-1,-1,-1,0,389534.608493,1.311325073242188,0.216461181640625,-0.7106170654296875,389534.603514,-2.351992535560628,-1.426904961474597,-0.5172202599688079,-2.533646821975708,0.8317768573760986,0.1585066765546799,2.020950317382812,-0.3096362054347992,-0.4641826152801514,XArbitraryZVertical,-0.658387644381537,-0.06485599853937826,-0.6103600016507313,0.4356376742480033,-0.8602144122123718,0.4944659173488617,-0.1246388182044029,0,0,0,-1,-1,389534.0409275,unknown,2,2023-11-06T09:24:39.129+02:00,2023-11-06T09:23:03.878+02:00,9,0.5993428,0,0,7.403943,0,0,2023-11-06T09:23:25.206+02:00,720948279.2187495,0,-1.080017,101.7217,1,0.7
2023-11-06T09:24:39.721+02:00,0,0,0,0,0,-1,0,-1,-1,-1,0,389534.628407,1.0301513671875,0.2681732177734375,-0.7575836181640625,389534.623429,-2.390064458020828,-1.432903397349001,-0.5301854411109103,-0.9469897150993347,0.5422614216804504,0.5961834192276001,2.11398458480835,-0.2534046173095703,-0.6410581469535828,XArbitraryZVertical,-0.6620628461877102,-0.04878607671232658,-0.6138744933234443,0.4271425227349362,-0.8545241951942444,0.5056933164596558,-0.1185854151844978,0,0,0,-1,-1,389534.0409275,unknown,2,2023-11-06T09:24:39.129+02:00,2023-11-06T09:23:03.878+02:00,9,0.5993428,0,0,7.403943,0,0,2023-11-06T09:23:25.206+02:00,720948279.2187495,0,-1.080017,101.7217,1,0.7
2023-11-06T09:24:39.741+02:00,0,0,0,0,0,-1,0,-1,-1,-1,0,389534.6483220001,0.64825439453125,0.2283172607421875,-0.7232513427734375,389534.643343,-2.394031512061308,-1.425046064651498,-0.5455531322257196,0.3391109704971313,0.4478102624416351,0.8976370692253113,1.641186833381653,-0.26896733045578,-0.6116262674331665,XArbitraryZVertical,-0.6605423890584753,-0.04009332795226468,-0.6141107147194292,0.4300515028368972,-0.8457767367362976,0.5188910365104675,-0.1241525560617447,0,0,0,-1,-1,389534.0409275,unknown,2,2023-11-06T09:24:39.129+02:00,2023-11-06T09:23:03.878+02:00,9,0.5993428,0,0,7.403943,0,0,2023-11-06T09:23:25.206+02:00,720948279.2187495,0,-1.080017,101.7217,1,0.7
2023-11-06T09:24:39.761+02:00,0,0,0,0,0,-1,0,-1,-1,-1,0,389534.668236,0.45452880859375,0.3332977294921875,-0.6795501708984375,389534.663258,-2.370855412771808,-1.405939852722325,-0.5640616621395177,1.24144458770752,0.2135407775640488,1.262619376182556,1.381713271141052,-0.2876443266868591,-0.5734697580337524,XArbitraryZVertical,-0.6552189891855233,-0.03665847343411958,-0.6114089865026927,0.4421801876154068,-0.8336328864097595,0.5346230864524841,-0.1386884599924088,0,0,0,-1,-1,389534.0409275,unknown,2,2023-11-06T09:24:39.129+02:00,2023-11-06T09:23:03.878+02:00,9,0.5993428,0,0,7.403943,0,0,2023-11-06T09:23:25.206+02:00,720948279.2187495,0,-1.080017,101.7217,1,0.7
2023-11-06T09:24:39.781+02:00,0,0,0,0,0,-1,0,-1,-1,-1,0,389534.688151,0.2625274658203125,0.665924072265625,-0.668365478515625,389534.683172,-2.328047371081576,-1.381195290879588,-0.5891638674159185,1.820489764213562,-0.09710018336772919,1.913729786872864,1.17910099029541,-0.08384907245635986,-0.4995879530906677,XArbitraryZVertical,-0.6483709858136094,-0.03561982090639206,-0.6042948087072826,0.4617077342734029,-0.8165063261985779,0.5556660294532776,-0.1566925793886185,0,0,0,-1,-1,389534.0409275,unknown,2,2023-11-06T09:24:39.129+02:00,2023-11-06T09:23:03.878+02:00,9,0.5993428,0,0,7.403943,0,0,2023-11-06T09:23:25.206+02:00,720948279.2187495,0,-1.080017,101.7217,1,0.7
2023-11-06T09:24:39.801+02:00,0,0,0,0,0,-1,0,-1,-1,-1,0,389534.708065,-0.0062103271484375,1.317398071289062,-0.756591796875,389534.703087,-2.267828629114724,-1.354002966949994,-0.6270944172836717,2.294156074523926,-0.7370468378067017,2.82595157623291,0.9357556104660034,0.3606389760971069,-0.5323846936225891,XArbitraryZVertical,-0.6416665526707417,-0.03431138010492316,-0.5900568296628507,0.4887942259926366,-0.7907818555831909,0.5867944955825806,-0.1741735339164734,0,0,0,-1,-1,389534.0409275,unknown,2,2023-11-06T09:24:39.129+02:00,2023-11-06T09:23:03.878+02:00,9,0.5993428,0,0,7.403943,0,0,2023-11-06T09:23:25.206+02:00,720948279.2187495,0,-1.080017,101.7217,1,0.7
2023-11-06T09:24:39.821+02:00,0,0,0,0,0,-1,0,-1,-1,-1,0,389534.72798,-0.5088958740234375,2.487396240234375,-1.064178466796875,389534.723001,-2.183591818986875,-1.332420940846486,-0.6767894526330634,3.636286973953247,-2.722488403320312,3.364443302154541,0.5481160879135132,1.175769567489624,-0.6341425180435181,XArbitraryZVertical,-0.637641090431284,-0.037068534456472,-0.563565678319396,0.5238640287954384,-0.7575430274009705,0.6262933611869812,-0.1840795278549194,0,0,0,-1,-1,389534.0409275,unknown,2,2023-11-06T09:24:39.129+02:00,2023-11-06T09:23:03.878+02:00,9,0.5993428,0,0,7.403943,0,0,2023-11-06T09:23:25.206+02:00,720948279.2187495,0,-1.080017,101.7217,1,0.7
2023-11-06T09:24:39.841+02:00,0,0,0,0,0,-1,0,-1,-1,-1,0,389534.747895,-1.590576171875,4.0247802734375,-1.136215209960938,389534.742916,-2.064642987020911,-1.339613565933008,-0.710870502922936,3.560900211334229,-3.883850336074829,2.522119283676147,-0.2582157254219055,2.686068296432495,-1.230008125305176,XArbitraryZVertical,-0.6395720639817659,-0.06427495309285462,-0.5201452026364841,0.5623747015461165,-0.7376338839530945,0.6524936556816101,-0.1736326068639755,0,0,0,-1,-1,389534.0409275,unknown,2,2023-11-06T09:24:39.129+02:00,2023-11-06T09:23:03.878+02:00,9,0.5993428,0,0,7.403943,0,0,2023-11-06T09:23:25.206+02:00,720948279.2187495,0,-1.080017,101.7217,1,0.7
2023-11-06T09:24:39.861+02:00,0,0,0,0,0,-1,0,-1,-1,-1,0,389534.767809,-4.619003295898438,4.259765625,-0.9096527099609375,389534.762831,-1.94455928990899,-1.280322497846175,-0.7410420526802394,5.476406097412109,0.965948224067688,2.133562803268433,-1.889820337295532,3.482398509979248,-0.6879302859306335,XArbitraryZVertical,-0.6236233560823461,-0.07378060482802914,-0.495762883212078,0.5998912901400175,-0.706859290599823,0.675057053565979,-0.2113006711006165,0,0,0,-1,-1,389534.0409275,unknown,2,2023-11-06T09:24:39.129+02:00,2023-11-06T09:23:03.878+02:00,9,0.5993428,0,0,7.403943,0,0,2023-11-06T09:23:25.206+02:00,720948279.2187495,0,-1.080017,101.7217,1,0.7
2023-11-06T09:24:39.881+02:00,0,0,0,0,0,-1,0,-1,-1,-1,0,389534.7877240001,-3.737701416015625,3.971542358398438,0.367218017578125,389534.782745,-1.745408719385099,-1.111344170487621,-0.7438597628166332,7.221567153930664,2.569480657577515,3.492705345153809,-5.105175971984863,3.881582736968994,-0.06176942586898804,XArbitraryZVertical,-0.5749257100004251,-0.07936700070805089,-0.4830938286040915,0.655577406532946,-0.6595485210418701,0.6771332025527954,-0.326322615146637,0,0,0,-1,-1,389534.0409275,unknown,2,2023-11-06T09:24:39.129+02:00,2023-11-06T09:23:03.878+02:00,9,0.5993428,0,0,7.403943,0,0,2023-11-06T09:23:25.206+02:00,720948279.2187495,0,-1.080017,101.7217,1,0.7
2023-11-06T09:24:39.901+02:00,0,0,0,0,0,-1,0,-1,-1,-1,0,389534.807638,-2.2816162109375,2.122695922851562,1.001419067382812,389534.80266,-1.546939043332028,-0.9281267665842836,-0.7423651873984063,5.179837226867676,2.00290060043335,3.957838296890259,-1.777170181274414,2.350304126739502,1.346280574798584,XArbitraryZVertical,-0.5234728972507644,-0.07183156345173437,-0.4660333461945533,0.7096684968473261,-0.5898648500442505,0.6760326623916626,-0.4416327178478241,0,0,0,-1,-1,389534.0409275,unknown,2,2023-11-06T09:24:39.129+02:00,2023-11-06T09:23:03.878+02:00,9,0.5993428,0,0,7.403943,0,0,2023-11-06T09:23:25.206+02:00,720948279.2187495,0,-1.080017,101.7217,1,0.7
2023-11-06T09:24:39.920+02:00,0,0,0,0,0,-1,0,-1,-1,-1,0,389534.827553,-1.932403564453125,0.9476470947265625,0.5420989990234375,389534.822574,-1.391552430636176,-0.7926303508257609,-0.7510185361795458,2.931605339050293,1.067211508750916,4.122236728668213,-1.605071067810059,0.6982925534248352,1.26620626449585,XArbitraryZVertical,-0.4898713990850278,-0.05879133517795496,-0.4414330518471491,0.7494707144560833,-0.5206156373023987,0.68238365650177,-0.5131391882896423,0,0,0,-1,-1,389534.0409275,unknown,2,2023-11-06T09:24:39.129+02:00,2023-11-06T09:23:03.878+02:00,9,0.5993428,0,0,7.403943,0,0,2023-11-06T09:23:25.206+02:00,720948279.2187495,0,-1.080017,101.7217,1,0.7
2023-11-06T09:24:39.940+02:00,0,0,0,0,0,-1,0,-1,-1,-1,0,389534.847467,-1.444625854492188,0.5164031982421875,0.4438629150390625,389534.842489,-1.271272062918134,-0.6959161138280868,-0.774454886447543,1.424695730209351,0.3172479867935181,3.822690725326538,-1.238357782363892,-0.01030069589614868,1.008425951004028,XArbitraryZVertical,-0.473107244222724,-0.04331328213030748,-0.4131739585277122,0.7769045816399727,-0.4582517743110657,0.6993265151977539,-0.5485869646072388,0,0,0,-1,-1,389534.0409275,unknown,2,2023-11-06T09:24:39.129+02:00,2023-11-06T09:23:03.878+02:00,9,0.5993428,0,0,7.403943,0,0,2023-11-06T09:23:25.206+02:00,720948279.2187495,0,-1.080017,101.7217,1,0.7
2023-11-06T09:24:39.960+02:00,0,0,0,0,0,-1,0,-1,-1,-1,0,389534.867382,-0.985809326171875,0.1562347412109375,0.62615966796875,389534.862403,-1.173419958601196,-0.6274724628664107,-0.7999905750100094,0.9527567625045776,-0.4255968630313873,3.169579029083252,-0.7930312752723694,-0.3630404472351074,1.075489282608032,XArbitraryZVertical,-0.4658309784065641,-0.03165133728859166,-0.3849509686603172,0.7961234704144391,-0.4090409278869629,0.7173495292663574,-0.5639994144439697,0,0,0,-1,-1,389534.0409275,unknown,2,2023-11-06T09:24:39.129+02:00,2023-11-06T09:23:03.878+02:00,9,0.5993428,0,0,7.403943,0,0,2023-11-06T09:23:25.206+02:00,720948279.2187495,0,-1.080017,101.7217,1,0.7
2023-11-06T09:24:39.980+02:00,0,0,0,0,0,-1,0,-1,-1,-1,0,389534.887296,-0.647918701171875,-0.187591552734375,0.685394287109375,389534.882318,-1.092291820227096,-0.5826528626525139,-0.8126679625351686,1.29768705368042,-0.8989550471305847,2.180763959884644,-0.4193580746650696,-0.7429088354110718,1.272514343261719,XArbitraryZVertical,-0.4605537332777904,-0.02881765357174759,-0.3599933405381681,0.8108418445180378,-0.3783256709575653,0.7261241674423218,-0.5741196274757385,0,0,0,-1,-1,389534.0409275,unknown,2,2023-11-06T09:24:39.129+02:00,2023-11-06T09:23:03.878+02:00,9,0.5993428,0,0,7.403943,0,0,2023-11-06T09:23:25.206+02:00,720948279.2187495,0,-1.080017,101.7217,1,0.7
2023-11-06T09:24:40.001+02:00,0,0,0,0,0,-1,0,-1,-1,-1,0,389534.907211,-0.406982421875,-0.5059814453125,0.6834564208984375,389534.902232,-1.025014401258357,-0.5549451773439097,-0.8101774183624255,1.249397397041321,-1.238309741020203,1.703509569168091,-0.1656276285648346,-1.104246497154236,1.280892610549927,XArbitraryZVertical,-0.453780307088701,-0.03354930472777432,-0.3393553843671715,0.8232835971320753,-0.3632267713546753,0.7244095206260681,-0.585915744304657,0,0,0,-1,-1,389534.0409275,unknown,2,2023-11-06T09:24:39.129+02:00,2023-11-06T09:23:03.878+02:00,9,0.5993428,0,0,7.403943,0,0,2023-11-06T09:23:25.206+02:00,720948279.2187495,0,-1.080017,101.7217,1,0.7
2023-11-06T09:24:40.020+02:00,0,0,0,0,0,-1,0,-1,-1,-1,0,389534.927125,-0.219329833984375,-0.667755126953125,0.619384765625,389534.922147,-0.9720594642028373,-0.5457379762153595,-0.8106341038850837,0.5737900733947754,-1.67387318611145,1.43528938293457,0.06118199229240417,-1.323647022247314,1.245873689651489,XArbitraryZVertical,-0.4514342429431715,-0.04160468227491412,-0.3194308556243463,0.8321299199395618,-0.3576450645923615,0.7247242331504822,-0.588952362537384,0,0,0,-1,-1,389534.0409275,unknown,2,2023-11-06T09:24:39.129+02:00,2023-11-06T09:23:03.878+02:00,9,0.5993428,0,0,7.403943,0,0,2023-11-06T09:23:25.206+02:00,720948279.2187495,0,-1.080017,101.7217,1,0.7
2023-11-06T09:24:40.040+02:00,0,0,0,0,0,-1,0,-1,-1,-1,0,389534.94704,-0.1624908447265625,-0.75335693359375,0.50885009765625,389534.942061,-0.9386402451485392,-0.5567140423678154,-0.8205190552704162,-0.1852240860462189,-1.816056966781616,0.9761578440666199,0.1838929951190948,-1.433633089065552,1.148323535919189,XArbitraryZVertical,-0.4559930265276038,-0.05128300840727872,-0.3010401340431653,0.8359517413981183,-0.3602846562862396,0.7314998507499695,-0.5788808465003967,0,0,0,-1,-1,389534.0409275,unknown,2,2023-11-06T09:24:39.129+02:00,2023-11-06T09:23:03.878+02:00,9,0.5993428,0,0,7.403943,0,0,2023-11-06T09:23:25.206+02:00,720948279.2187495,0,-1.080017,101.7217,1,0.7
2023-11-06T09:24:40.060+02:00,0,0,0,0,0,-1,0,-1,-1,-1,0,389534.966955,-0.182525634765625,-0.923004150390625,0.451416015625,389534.961976,-0.9309084781272489,-0.5867990328300103,-0.8364025558667786,-0.8569517135620117,-1.768366098403931,0.352297842502594,0.196707010269165,-1.582569122314453,1.01881992816925,XArbitraryZVertical,-0.4660234933417868,-0.06168151228165215,-0.2876642995682275,0.8344260489601125,-0.3710539638996124,0.7422371506690979,-0.5580350160598755,0,0,0,-1,-1,389534.0409275,unknown,2,2023-11-06T09:24:39.129+02:00,2023-11-06T09:23:03.878+02:00,9,0.5993428,0,0,7.403943,0,0,2023-11-06T09:23:25.206+02:00,720948279.2187495,0,-1.080017,101.7217,1,0.7
2023-11-06T09:24:40.080+02:00,0,0,0,0,0,-1,0,-1,-1,-1,0,389534.986869,-0.22625732421875,-0.931640625,0.3851470947265625,389534.98189,-0.948368234638689,-0.6333289752674074,-0.8554442776742438,-1.268343329429626,-1.534523487091064,-0.2425445467233658,0.1963082551956177,-1.72179651260376,0.9644887447357178,XArbitraryZVertical,-0.480063253808014,-0.07209749875546559,-0.2799037987298457,0.8282482632672707,-0.3881722986698151,0.754862368106842,-0.5286824703216553,0,0,0,-1,-1,389534.0409275,unknown,2,2023-11-06T09:24:39.129+02:00,2023-11-06T09:23:03.878+02:00,9,0.5993428,0,0,7.403943,0,0,2023-11-06T09:23:25.206+02:00,720948279.2187495,0,-1.080017,101.7217,1,0.7
2023-11-06T09:24:40.103+02:00,0,0,0,0,0,-1,0,-1,-1,-1,0,389535.006784,-0.3372344970703125,-0.7272186279296875,0.334197998046875,389535.001805,-0.987343905811802,-0.6874850446169504,-0.8686143235795651,-1.311874866485596,-0.8635973334312439,-0.9841018319129944,0.1288392841815948,-1.601615190505981,0.8483660221099854,XArbitraryZVertical,-0.4937353503170545,-0.08149298261837276,-0.2798457766759082,0.8193110095170745,-0.4098756909370422,0.7634347081184387,-0.4991686046123505,0,0,0,-1,-1,389534.0409275,unknown,2,2023-11-06T09:24:39.129+02:00,2023-11-06T09:23:03.878+02:00,9,0.5993428,0,0,7.403943,0,0,2023-11-06T09:23:25.206+02:00,720948279.2187495,0,-1.080017,101.7217,1,0.7
2023-11-06T09:24:40.119+02:00,0,0,0,0,0,-1,0,-1,-1,-1,0,389535.026698,-0.37445068359375,-0.6761322021484375,0.3264923095703125,389535.02172,-1.045792445719189,-0.7415047262728701,-0.869457836242764,-1.27448558807373,-0.1040867194533348,-1.798779249191284,0.06640982627868652,-1.437608957290649,0.8124743103981018,XArbitraryZVertical,-0.5042026320141992,-0.08866945355167015,-0.2899604618189441,0.8086039647093648,-0.4357945919036865,0.7639791965484619,-0.4758348762989044,0,0,0,-1,-1,389534.0409275,unknown,2,2023-11-06T09:24:39.129+02:00,2023-11-06T09:23:03.878+02:00,9,0.5993428,0,0,7.403943,0,0,2023-11-06T09:23:25.206+02:00,720948279.2187495,0,-1.080017,101.7217,1,0.7
2023-11-06T09:24:40.140+02:00,0,0,0,0,0,-1,0,-1,-1,-1,0,389535.046613,-0.43267822265625,-0.6662139892578125,0.1190338134765625,389535.041634,-1.121106360357653,-0.795870392746459,-0.8569437102913325,-1.233803153038025,0.3210693597793579,-2.632712125778198,0.0791754424571991,-1.436890482902527,0.6967676877975464,XArbitraryZVertical,-0.5118006869353167,-0.09490833049666879,-0.3094421770043215,0.7958002892705545,-0.4678016006946564,0.7558450102806091,-0.4581049382686615,0,0,0,-1,-1,389534.0409275,unknown,2,2023-11-06T09:24:39.129+02:00,2023-11-06T09:23:03.878+02:00,9,0.5993428,0,0,7.403943,0,0,2023-11-06T09:23:25.206+02:00,720948279.2187495,0,-1.080017,101.7217,1,0.7
2023-11-06T09:24:40.159+02:00,0,0,0,0,0,-1,0,-1,-1,-1,0,389535.066527,-0.677154541015625,-0.5147552490234375,-0.0368804931640625,389535.061549,-1.21403487619201,-0.8602741775758022,-0.8280685962164382,-1.504457116127014,0.04504657536745071,-3.770544528961182,-0.01019275188446045,-1.33657169342041,0.4580705165863037,XArbitraryZVertical,-0.5180999333479058,-0.1049813964101036,-0.3368627577454899,0.7791500552416306,-0.5126496553421021,0.7366265654563904,-0.4411027431488037,0,0,0,-1,-1,389534.0409275,unknown,2,2023-11-06T09:24:39.129+02:00,2023-11-06T09:23:03.878+02:00,9,0.5993428,0,0,7.403943,0,0,2023-11-06T09:23:25.206+02:00,720948279.2187495,0,-1.080017,101.7217,1,0.7
2023-11-06T09:24:40.179+02:00,0,0,0,0,0,-1,0,-1,-1,-1,0,389535.086442,-1.294906616210938,-0.2442626953125,0.2794036865234375,389535.081463,-1.333819069208035,-0.9543940456339844,-0.7843329646739376,-2.35322093963623,-0.803300142288208,-4.634183406829834,-0.3327517509460449,-1.100045204162598,0.4893703758716583,XArbitraryZVertical,-0.5292854469112158,-0.1234866980409077,-0.3698194823691222,0.7535525009072138,-0.5775875449180603,0.7063531875610352,-0.409215897321701,0,0,0,-1,-1,389534.0409275,unknown,2,2023-11-06T09:24:39.129+02:00,2023-11-06T09:23:03.878+02:00,9,0.5993428,0,0,7.403943,0,0,2023-11-06T09:23:25.206+02:00,720948279.2187495,0,-1.080017,101.7217,1,0.7
2023-11-06T09:24:40.199+02:00,0,0,0,0,0,-1,0,-1,-1,-1,0,389535.106356,-2.951217651367188,0.37286376953125,-0.159393310546875,389535.1013780001,-1.475384327618437,-1.067750842726741,-0.7414179994807134,-4.160819530487061,-0.7819370627403259,-4.439030647277832,-1.301682710647583,-0.7380175590515137,0.6322391033172607,XArbitraryZVertical,-0.549794896417141,-0.1412440531974191,-0.4032309544627413,0.7177606915928345,-0.6461474895477295,0.6753343939781189,-0.3555513918399811,0,0,0,-1,-1,389534.0409275,unknown,2,2023-11-06T09:24:39.129+02:00,2023-11-06T09:23:03.878+02:00,9,0.5993428,0,0,7.403943,0,0,2023-11-06T09:23:25.206+02:00,720948279.2187495,0,-1.080017,101.7217,1,0.7
2023-11-06T09:24:40.219+02:00,0,0,0,0,0,-1,0,-1,-1,-1,0,389535.126271,-6.2545166015625,3.123611450195312,-0.614288330078125,389535.121292,-1.653225700555299,-1.19350532259329,-0.70908118546816,-6.638551235198975,-0.2183568328619003,-4.447450160980225,-3.737550735473633,0.8910233378410339,-0.4377425611019135,XArbitraryZVertical,-0.5822021771168353,-0.1457353869285734,-0.4385037527908497,0.6689666930520923,-0.705579936504364,0.6511366963386536,-0.2796036303043365,0,0,0,-1,-1,389534.0409275,unknown,2,2023-11-06T09:24:39.129+02:00,2023-11-06T09:23:03.878+02:00,9,0.5993428,0,0,7.403943,0,0,2023-11-06T09:23:25.206+02:00,720948279.2187495,0,-1.080017,101.7217,1,0.7
2023-11-06T09:24:40.239+02:00,0,0,0,0,0,-1,0,-1,-1,-1,0,389535.146185,-3.802398681640625,4.045364379882812,-0.1900482177734375,389535.141207,-1.834626559242052,-1.308826923638035,-0.6799602657792138,-5.021334171295166,0.3294838964939117,-1.686190962791443,-5.143112659454346,3.45468807220459,-0.1737372279167175,XArbitraryZVertical,-0.6164729182217208,-0.1388118967879477,-0.4704807865392521,0.6159060403092197,-0.7510675191879272,0.6287621259689331,-0.2013847976922989,0,0,0,-1,-1,389534.0409275,unknown,2,2023-11-06T09:24:39.129+02:00,2023-11-06T09:23:03.878+02:00,9,0.5993428,0,0,7.403943,0,0,2023-11-06T09:23:25.206+02:00,720948279.2187495,0,-1.080017,101.7217,1,0.7
2023-11-06T09:24:40.259+02:00,0,0,0,0,0,-1,0,-1,-1,-1,0,389535.1661,-2.731887817382812,3.724700927734375,-0.12567138671875,389535.161121,-1.922679973681825,-1.354561978729551,-0.6961141684047154,-2.239437103271484,0.7050093412399292,1.008424997329712,-2.400737285614014,3.239526987075806,0.2622609734535217,XArbitraryZVertical,-0.6351816063547806,-0.1192758380790332,-0.4783121861021759,0.5945881848658063,-0.7494702339172363,0.6412407755851746,-0.1646351963281631,0,0,0,-1,-1,389534.0409275,unknown,2,2023-11-06T09:24:39.129+02:00,2023-11-06T09:23:03.878+02:00,9,0.5993428,0,0,7.403943,0,0,2023-11-06T09:23:25.206+02:00,720948279.2187495,0,-1.080017,101.7217,1,0.7
2023-11-06T09:24:40.279+02:00,0,0,0,0,0,-1,0,-1,-1,-1,0,389535.186015,-1.232421875,2.4693603515625,-0.4170379638671875,389535.181036,-1.94935134353122,-1.341958188985928,-0.7173406236454253,-0.3803548514842987,2.711681842803955,0.2864979207515717,-1.130971550941467,2.472820281982422,-0.2398556917905807,XArbitraryZVertical,-0.6361279707368629,-0.09935047228918881,-0.4843451643695252,0.5923516058113584,-0.7339118123054504,0.6573830246925354,-0.1709413826465607,0,0,0,-1,-1,389534.0409275,unknown,2,2023-11-06T09:24:39.129+02:00,2023-11-06T09:23:03.878+02:00,9,0.5993428,0,0,7.403943,0,0,2023-11-06T09:23:25.206+02:00,720948279.2187495,0,-1.080017,101.7217,1,0.7
2023-11-06T09:24:40.299+02:00,0,0,0,0,0,-1,0,-1,-1,-1,0,389535.205929,-0.446502685546875,1.550765991210938,-0.3182525634765625,389535.20095,-1.951396937038347,-1.264574570130761,-0.709719944646318,0.1703027784824371,4.605879783630371,-1.028417229652405,-0.1087595224380493,1.315938472747803,-0.09065109491348267,XArbitraryZVertical,-0.6160307876428179,-0.07855761782842993,-0.5112704080534504,0.5940853505109359,-0.7232564687728882,0.6516213417053223,-0.2286695390939713,0,0,0,-1,-1,389534.0409275,unknown,2,2023-11-06T09:24:39.129+02:00,2023-11-06T09:23:03.878+02:00,9,0.5993428,0,0,7.403943,0,0,2023-11-06T09:23:25.206+02:00,720948279.2187495,0,-1.080017,101.7217,1,0.7
2023-11-06T09:24:40.319+02:00,0,0,0,0,0,-1,0,-1,-1,-1,0,389535.225844,0.6461334228515625,0.866119384765625,-0.2589569091796875,389535.220865,-1.972030955736136,-1.204178770757877,-0.6823868970597556,-0.5036886930465698,2.578192234039307,-1.970271706581116,0.7357723116874695,0.5287308692932129,0.04787364602088928,XArbitraryZVertical,-0.597262425666683,-0.06467365233224616,-0.5429794254501645,0.5867438768451068,-0.7244961857795715,0.6306472420692444,-0.2781898379325867,0,0,0,-1,-1,389534.0409275,unknown,2,2023-11-06T09:24:39.129+02:00,2023-11-06T09:23:03.878+02:00,9,0.5993428,0,0,7.403943,0,0,2023-11-06T09:23:25.206+02:00,720948279.2187495,0,-1.080017,101.7217,1,0.7
2023-11-06T09:24:40.339+02:00,0,0,0,0,0,-1,0,-1,-1,-1,0,389535.245758,1.772705078125,0.647857666015625,-0.2784271240234375,389535.2407800001,-1.990579347255316,-1.178513196848141,-0.6510993376010663,0.235835537314415,1.401231050491333,-1.265244841575623,2.024059534072876,0.09973406791687012,-0.04785633087158203,XArbitraryZVertical,-0.5864480543156992,-0.06352063641736383,-0.5640655140433266,0.577818274436291,-0.734997034072876,0.6060612201690674,-0.3040876090526581,0,0,0,-1,-1,389534.0409275,unknown,2,2023-11-06T09:24:39.129+02:00,2023-11-06T09:23:03.878+02:00,9,0.5993428,0,0,7.403943,0,0,2023-11-06T09:23:25.206+02:00,720948279.2187495,0,-1.080017,101.7217,1,0.7
2023-11-06T09:24:40.359+02:00,0,0,0,0,0,-1,0,-1,-1,-1,0,389535.265673,1.74530029296875,0.37689208984375,-0.0128326416015625,389535.260694,-1.999907060023762,-1.166706566421422,-0.6357085557140272,-0.5918402671813965,0.3788256049156189,-0.6701486706733704,2.727332830429077,-0.001203298568725586,0.1999192833900452,XArbitraryZVertical,-0.581217326397255,-0.06323959677032959,-0.5740896506098973,0.5732435780224959,-0.7398450970649719,0.5937477946281433,-0.3163743317127228,0,0,0,-1,-1,389534.0409275,unknown,2,2023-11-06T09:24:39.129+02:00,2023-11-06T09:23:03.878+02:00,9,0.5993428,0,0,7.403943,0,0,2023-11-06T09:23:25.206+02:00,720948279.2187495,0,-1.080017,101.7217,1,0.7
2023-11-06T09:24:40.379+02:00,0,0,0,0,0,-1,0,-1,-1,-1,0,389535.285587,0.9179840087890625,-0.10382080078125,-0.0931396484375,389535.280609,-2.041170780178247,-1.180448886971715,-0.6319573903749056,-2.254028081893921,0.8442577719688416,-0.9935896992683411,1.989020824432373,-0.494228720664978,0.2781533002853394,XArbitraryZVertical,-0.5859126889683112,-0.05652301604282742,-0.582710723904191,0.560321018076527,-0.7461772561073303,0.5907252430915833,-0.3070229291915894,0,0,0,-1,-1,389534.0409275,unknown,2,2023-11-06T09:24:39.129+02:00,2023-11-06T09:23:03.878+02:00,9,0.5993428,0,0,7.403943,0,0,2023-11-06T09:23:25.206+02:00,720948279.2187495,0,-1.080017,101.7217,1,0.7
2023-11-06T09:24:40.398+02:00,0,0,0,0,0,-1,0,-1,-1,-1,0,389535.305502,1.09796142578125,-0.2151336669921875,-0.2988739013671875,389535.300523,-2.107259388848366,-1.19861300404005,-0.6317435085134765,-2.429046630859375,1.124580502510071,-0.8699957132339478,1.655709624290466,-0.8090890645980835,0.1089408397674561,XArbitraryZVertical,-0.5928681712480951,-0.04212652405955888,-0.5955968864076718,0.5403676135980388,-0.7517485022544861,0.5905526876449585,-0.2934653759002686,0,0,0,-1,-1,389534.0409275,unknown,2,2023-11-06T09:24:39.129+02:00,2023-11-06T09:23:03.878+02:00,9,0.5993428,0,0,7.403943,0,0,2023-11-06T09:23:25.206+02:00,720948279.2187495,0,-1.080017,101.7217,1,0.7
2023-11-06T09:24:40.418+02:00,0,0,0,0,0,-1,0,-1,-1,-1,0,389535.325416,1.37664794921875,0.04595947265625,-0.6070556640625,389535.320438,-2.153675458742074,-1.206989249990451,-0.6355157015148843,-1.007768392562866,0.7684743404388428,-0.1380279809236526,2.070833683013916,-0.6885786056518555,-0.1621227860450745,XArbitraryZVertical,-0.5966331959721105,-0.02910409363068209,-0.6045762172232436,0.526943440345349,-0.7520928978919983,0.5935925841331482,-0.2863635718822479,0,0,0,-1,-1,389534.0409275,unknown,2,2023-11-06T09:24:39.129+02:00,2023-11-06T09:23:03.878+02:00,9,0.5993428,0,0,7.403943,0,0,2023-11-06T09:23:25.206+02:00,720948279.2187495,0,-1.080017,101.7217,1,0.7
2023-11-06T09:24:40.438+02:00,0,0,0,0,0,-1,0,-1,-1,-1,0,389535.345331,1.00225830078125,0.157684326171875,-0.7241668701171875,389535.340352,-2.156646935532402,-1.195436105127634,-0.6375529326827538,0.6262862682342529,0.5994743704795837,0.1798222064971924,1.979098796844482,-0.4556282758712769,-0.4110533595085144,XArbitraryZVertical,-0.5933890052693521,-0.02438892002409401,-0.6083054596017694,0.5265539922571613,-0.7476077079772949,0.5952308773994446,-0.2945893406867981,0,0,0,-1,-1,389534.0409275,unknown,2,2023-11-06T09:24:39.129+02:00,2023-11-06T09:23:03.878+02:00,9,0.5993428,0,0,7.403943,0,0,2023-11-06T09:23:25.206+02:00,720948279.2187495,0,-1.080017,101.7217,1,0.7
2023-11-06T09:24:40.458+02:00,0,0,0,0,0,-1,0,-1,-1,-1,0,389535.3652450001,0.677581787109375,0.1393890380859375,-0.7613677978515625,389535.360267,-2.128572662535676,-1.168272043331404,-0.635690895992345,1.405158162117004,0.4575632810592651,0.5370908975601196,1.557106256484985,-0.4585712552070618,-0.4246025085449219,XArbitraryZVertical,-0.5845555966416631,-0.02616897744947267,-0.6093019203678283,0.5351272090881264,-0.7403491735458374,0.5937336087226868,-0.3152198791503906,0,0,0,-1,-1,389534.0409275,unknown,2,2023-11-06T09:24:39.129+02:00,2023-11-06T09:23:03.878+02:00,9,0.5993428,0,0,7.403943,0,0,2023-11-06T09:23:25.206+02:00,720948279.2187495,0,-1.080017,101.7217,1,0.7
2023-11-06T09:24:40.478+02:00,0,0,0,0,0,-1,0,-1,-1,-1,0,389535.38516,0.4148712158203125,0.3053131103515625,-0.76971435546875,389535.380181,-2.08618688709228,-1.134670768281971,-0.6371336361920924,1.571355819702148,0.3642527759075165,1.02472972869873,1.270174980163574,-0.4122157096862793,-0.4163686037063599,XArbitraryZVertical,-0.5739301605243112,-0.02877994849536651,-0.6071998194322941,0.5487115814353675,-0.7285643815994263,0.5948938727378845,-0.3395517766475677,0,0,0,-1,-1,389534.0409275,unknown,2,2023-11-06T09:24:39.129+02:00,2023-11-06T09:23:03.878+02:00,9,0.5993428,0,0,7.403943,0,0,2023-11-06T09:23:25.206+02:00,720948279.2187495,0,-1.080017,101.7217,1,0.7
2023-11-06T09:24:40.498+02:00,0,0,0,0,0,-1,0,-1,-1,-1,0,389535.405075,0.2033843994140625,0.7167816162109375,-0.8689727783203125,389535.400096,-2.04022945059759,-1.102513727761226,-0.6497576523634542,1.173248648643494,0.1007790714502335,1.764753937721252,1.018739700317383,-0.09747087955474854,-0.454460620880127,XArbitraryZVertical,-0.5652645645909495,-0.02801586400202505,-0.6004795422062174,0.5649030607304054,-0.710512101650238,0.604993462562561,-0.359382152557373,0,0,0,-1,-1,389534.0409275,unknown,2,2023-11-06T09:24:39.129+02:00,2023-11-06T09:23:03.878+02:00,9,0.5993428,0,0,7.403943,0,0,2023-11-06T09:23:25.206+02:00,720948279.2187495,0,-1.080017,101.7217,1,0.7
2023-11-06T09:24:40.518+02:00,0,0,0,0,0,-1,0,-1,-1,-1,0,389535.424989,-0.09552001953125,1.18218994140625,-1.0262451171875,389535.42001,-1.992769811539155,-1.076147149853157,-0.6790230553306831,0.8074763417243958,-0.4700918793678284,2.561558723449707,0.752994179725647,0.2946810722351074,-0.5914686918258667,XArbitraryZVertical,-0.5610552441211719,-0.02248341954110145,-0.5870048533660444,0.5832124716675731,-0.6849095225334167,0.6280331015586853,-0.3694230318069458,0,0,0,-1,-1,389534.0409275,unknown,2,2023-11-06T09:24:39.129+02:00,2023-11-06T09:23:03.878+02:00,9,0.5993428,0,0,7.403943,0,0,2023-11-06T09:23:25.206+02:00,720948279.2187495,0,-1.080017,101.7217,1,0.7
2023-11-06T09:24:40.538+02:00,0,0,0,0,0,-1,0,-1,-1,-1,0,389535.444904,-0.5613555908203125,2.031585693359375,-1.423446655273438,389535.439925,-1.929711650289557,-1.054827121486525,-0.7148063492618738,2.079686641693115,-1.932413935661316,2.701961040496826,0.3673663139343262,0.8596044182777405,-0.7115583419799805,XArbitraryZVertical,-0.5597262156086986,-0.02005033564179706,-0.5651065853435949,0.6057714598226446,-0.6569017767906189,0.6554712057113647,-0.3726091086864471,0,0,0,-1,-1,389534.0409275,unknown,2,2023-11-06T09:24:39.129+02:00,2023-11-06T09:23:03.878+02:00,9,0.5993428,0,0,7.403943,0,0,2023-11-06T09:23:25.206+02:00,720948279.2187495,0,-1.080017,101.7217,1,0.7
2023-11-06T09:24:40.558+02:00,0,0,0,0,0,-1,0,-1,-1,-1,0,389535.464818,-1.272720336914062,3.80889892578125,-1.846237182617188,389535.45984,-1.838569858849655,-1.058550863598693,-0.7321964402826944,2.516396760940552,-3.532569169998169,2.505703210830688,-0.2463575005531311,2.218671798706055,-1.447402358055115,XArbitraryZVertical,-0.5622515358883431,-0.04017857101347667,-0.5312816264773247,0.6324545011233299,-0.6482500433921814,0.6685047745704651,-0.3645177781581879,0,0,0,-1,-1,389534.0409275,unknown,2,2023-11-06T09:24:39.129+02:00,2023-11-06T09:23:03.878+02:00,9,0.5993428,0,0,7.403943,0,0,2023-11-06T09:23:25.206+02:00,720948279.2187495,0,-1.080017,101.7217,1,0.7
2023-11-06T09:24:40.578+02:00,0,0,0,0,0,-1,0,-1,-1,-1,0,389535.484733,-3.103973388671875,3.90478515625,-1.233657836914062,389535.479754,-1.73637823105039,-1.02439958752011,-0.7483713678778716,3.788137197494507,0.3306620717048645,2.102074146270752,-1.276956558227539,3.487354755401611,-1.272885322570801,XArbitraryZVertical,-0.5540286762599826,-0.0516419268493709,-0.5034326503037532,0.6610151244307427,-0.6261044144630432,0.6804462075233459,-0.3807706832885742,0,0,0,-1,-1,389534.0409275,unknown,2,2023-11-06T09:24:39.129+02:00,2023-11-06T09:23:03.878+02:00,9,0.5993428,0,0,7.403943,0,0,2023-11-06T09:23:25.206+02:00,720948279.2187495,0,-1.080017,101.7217,1,0.7
2023-11-06T09:24:40.598+02:00,0,0,0,0,0,-1,0,-1,-1,-1,0,389535.5046470001,-4.299972534179688,3.557418823242188,-0.026763916015625,389535.499669,-1.585540129856605,-0.8917287450744941,-0.7236962899385637,6.249651908874512,2.727203607559204,2.649780035018921,-4.095282077789307,3.009929418563843,-0.1536929905414581,XArbitraryZVertical,-0.511455355964173,-0.05556968044739855,-0.4939002429552065,0.7009906164304095,-0.583123505115509,0.6621590256690979,-0.470650851726532,0,0,0,-1,-1,389534.0409275,unknown,2,2023-11-06T09:24:39.129+02:00,2023-11-06T09:23:03.878+02:00,9,0.5993428,0,0,7.403943,0,0,2023-11-06T09:23:25.206+02:00,720948279.2187495,0,-1.080017,101.7217,1,0.7
2023-11-06T09:24:40.618+02:00,0,0,0,0,0,-1,0,-1,-1,-1,0,389535.524562,-1.743759155273438,1.920700073242188,0.68670654296875,389535.519583,-1.429009796570085,-0.7344443682913987,-0.6914286255892861,4.27944803237915,2.177564144134521,3.115070104598999,-1.932257175445557,2.336986303329468,1.051726341247559,XArbitraryZVertical,-0.4602498432167805,-0.04792889786282598,-0.4834679372421838,0.7430556847673447,-0.5162597894668579,0.6376383304595947,-0.5717458128929138,0,0,0,-1,-1,389534.0409275,unknown,2,2023-11-06T09:24:39.129+02:00,2023-11-06T09:23:03.878+02:00,9,0.5993428,0,0,7.403943,0,0,2023-11-06T09:23:25.206+02:00,720948279.2187495,0,-1.080017,101.7217,1,0.7
2023-11-06T09:24:40.637+02:00,0,0,0,0,0,-1,0,-1,-1,-1,0,389535.5444755,-1.304779052734375,0.7447052001953125,0.37200927734375,389535.5394975001,-1.314865097214174,-0.636551749426933,-0.6884072188809641,1.683481812477112,0.4838953018188477,3.557836532592773,-1.01421582698822,0.4673684239387512,1.12706995010376,XArbitraryZVertical,-0.4337061340629038,-0.03732164002680902,-0.4627652893869491,0.7722397906140037,-0.4590508043766022,0.6353079676628113,-0.6210121512413025,0,0,0,-1,-1,389534.0409275,unknown,2,2023-11-06T09:24:39.129+02:00,2023-11-06T09:23:03.878+02:00,9,0.5993428,0,0,7.403943,0,0,2023-11-06T09:23:25.206+02:00,720948279.2187495,0,-1.080017,101.7217,1,0.7
2023-11-06T09:24:40.657+02:00,0,0,0,0,0,-1,0,-1,-1,-1,0,389535.5643905,-1.1943359375,0.5944671630859375,0.2397003173828125,389535.5594115,-1.221310800879582,-0.5763724704143127,-0.7123737332551761,0.6197689771652222,-0.2996642291545868,3.63061261177063,-0.8345112800598145,-0.03479665517807007,0.9041380286216736,XArbitraryZVertical,-0.4266418443526159,-0.02653109225499618,-0.434056423794664,0.7930118350157127,-0.412452220916748,0.6536321043968201,-0.6345456838607788,0,0,0,-1,-1,389534.0409275,unknown,2,2023-11-06T09:24:39.129+02:00,2023-11-06T09:23:03.878+02:00,9,0.5993428,0,0,7.403943,0,0,2023-11-06T09:23:25.206+02:00,720948279.2187495,0,-1.080017,101.7217,1,0.7
2023-11-06T09:24:40.677+02:00,0,0,0,0,0,-1,0,-1,-1,-1,0,389535.5843055,-0.99365234375,0.4584197998046875,0.3287353515625,389535.5793265,-1.137503935013002,-0.5294451141926808,-0.7391798137830379,0.4769063889980316,-0.5894994735717773,3.025027990341187,-0.7513877749443054,-0.1059635281562805,0.9305189251899719,XArbitraryZVertical,-0.425162872754591,-0.01779037157614126,-0.4050843444307762,0.8092136558397756,-0.3732460737228394,0.6736819744110107,-0.6378400921821594,0,0,0,-1,-1,389534.0409275,unknown,2,2023-11-06T09:24:39.129+02:00,2023-11-06T09:23:03.878+02:00,9,0.5993428,0,0,7.403943,0,0,2023-11-06T09:23:25.206+02:00,720948279.2187495,0,-1.080017,101.7217,1,0.7
2023-11-06T09:24:40.697+02:00,0,0,0,0,0,-1,0,-1,-1,-1,0,389535.6042195,-0.6912994384765625,-0.0370025634765625,0.4445953369140625,389535.5992405,-1.072241927744391,-0.4990240486095658,-0.7550166452685959,0.4873339831829071,-0.8475036025047302,1.957523822784424,-0.4866977334022522,-0.4354686141014099,1.015379667282104,XArbitraryZVertical,-0.4243277454368999,-0.01488311807533197,-0.3818832343602368,0.8209079241997287,-0.3485226333141327,0.6853007674217224,-0.6394489407539368,0,0,0,-1,-1,389534.0409275,unknown,2,2023-11-06T09:24:39.129+02:00,2023-11-06T09:23:03.878+02:00,9,0.5993428,0,0,7.403943,0,0,2023-11-06T09:23:25.206+02:00,720948279.2187495,0,-1.080017,101.7217,1,0.7
2023-11-06T09:24:40.717+02:00,0,0,0,0,0,-1,0,-1,-1,-1,0,389535.6241345,-0.372039794921875,-0.388702392578125,0.5363922119140625,389535.6191555,-1.029736517734812,-0.4921589411335254,-0.7647823604331286,-0.02022962644696236,-1.457484602928162,1.309498071670532,-0.1948818564414978,-0.9669466018676758,1.145754933357239,XArbitraryZVertical,-0.4262731359907768,-0.01850236736012869,-0.3639784462636232,0.8279303186986142,-0.3409458100795746,0.6923799514770508,-0.6358977556228638,0,0,0,-1,-1,389534.0409275,unknown,2,2023-11-06T09:24:39.129+02:00,2023-11-06T09:23:03.878+02:00,9,0.5993428,0,0,7.403943,0,0,2023-11-06T09:23:25.206+02:00,720948279.2187495,0,-1.080017,101.7217,1,0.7
2023-11-06T09:24:40.737+02:00,0,0,0,0,0,-1,0,-1,-1,-1,0,389535.6440485,-0.1836395263671875,-0.5599212646484375,0.467498779296875,389535.6390705,-1.011063994952194,-0.5133250072443738,-0.7835589148363221,-0.9725244045257568,-1.906414985656738,0.74900221824646,0.1013605296611786,-1.162485361099243,1.139290571212769,XArbitraryZVertical,-0.4367492833038596,-0.02641817077917083,-0.3481129218233183,0.8290775528438394,-0.347881555557251,0.7058050632476807,-0.6171042919158936,0,0,0,-1,-1,389534.0409275,unknown,2,2023-11-06T09:24:39.129+02:00,2023-11-06T09:23:03.878+02:00,9,0.5993428,0,0,7.403943,0,0,2023-11-06T09:23:25.206+02:00,720948279.2187495,0,-1.080017,101.7217,1,0.7
2023-11-06T09:24:40.757+02:00,0,0,0,0,0,-1,0,-1,-1,-1,0,389535.6639635,-0.1490020751953125,-0.7438507080078125,0.3101959228515625,389535.6589845,-1.019764679315649,-0.5595060854505055,-0.813231225570487,-1.862934470176697,-2.06529426574707,0.2627180814743042,0.2065467834472656,-1.394098520278931,0.9742669463157654,XArbitraryZVertical,-0.4555540264566686,-0.03581633794309831,-0.3355368472533167,0.8237735515734008,-0.364719420671463,0.7265112996101379,-0.5823754668235779,0,0,0,-1,-1,389534.0409275,unknown,2,2023-11-06T09:24:39.129+02:00,2023-11-06T09:23:03.878+02:00,9,0.5993428,0,0,7.403943,0,0,2023-11-06T09:23:25.206+02:00,720948279.2187495,0,-1.080017,101.7217,1,0.7
2023-11-06T09:24:40.777+02:00,0,0,0,0,0,-1,0,-1,-1,-1,0,389535.6838775,-0.194244384765625,-0.8800506591796875,0.2152557373046875,389535.6788995,-1.05442658712007,-0.6253761616147481,-0.8460527191475509,-2.067023992538452,-1.931682348251343,-0.4004775881767273,0.2242092192173004,-1.573330640792847,0.7860882878303528,XArbitraryZVertical,-0.4787027045081226,-0.04588337454471307,-0.3273947278468814,0.8133580223472711,-0.3880887031555176,0.748669445514679,-0.5374768972396851,0,0,0,-1,-1,389534.0409275,unknown,2,2023-11-06T09:24:39.129+02:00,2023-11-06T09:23:03.878+02:00,9,0.5993428,0,0,7.403943,0,0,2023-11-06T09:23:25.206+02:00,720948279.2187495,0,-1.080017,101.7217,1,0.7
2023-11-06T09:24:40.797+02:00,0,0,0,0,0,-1,0,-1,-1,-1,0,389535.7037925,-0.2818450927734375,-0.76025390625,0.1519775390625,389535.6988135,-1.108758592096439,-0.7001933536048307,-0.8693326706865291,-1.982378840446472,-1.377973318099976,-0.9314659833908081,0.1832275688648224,-1.612027764320374,0.6807865500450134,XArbitraryZVertical,-0.5000835831582082,-0.05627022342914937,-0.3256986301069793,0.8004189215023537,-0.4158325791358948,0.7638984322547913,-0.493500143289566,0,0,0,-1,-1,389534.0409275,unknown,2,2023-11-06T09:24:39.129+02:00,2023-11-06T09:23:03.878+02:00,9,0.5993428,0,0,7.403943,0,0,2023-11-06T09:23:25.206+02:00,720948279.2187495,0,-1.080017,101.7217,1,0.7
2023-11-06T09:24:40.817+02:00,0,0,0,0,0,-1,0,-1,-1,-1,0,389535.7237065,-0.37860107421875,-0.6813507080078125,0.191253662109375,389535.7187285,-1.181226341250549,-0.7751033526042359,-0.8861338658329514,-2.469985246658325,-0.5268733501434326,-1.390599131584167,0.1012008786201477,-1.473820805549622,0.5956985950469971,XArbitraryZVertical,-0.5198124161124938,-0.06256064007477267,-0.3312144824898646,0.7849702215350685,-0.4425552785396576,0.7746325731277466,-0.4517624378204346,0,0,0,-1,-1,389534.0409275,unknown,2,2023-11-06T09:24:39.129+02:00,2023-11-06T09:23:03.878+02:00,9,0.5993428,0,0,7.403943,0,0,2023-11-06T09:23:25.206+02:00,720948279.2187495,0,-1.080017,101.7217,1,0.7
2023-11-06T09:24:40.837+02:00,0,0,0,0,0,-1,0,-1,-1,-1,0,389535.7436215,-0.4073486328125,-0.652557373046875,0.1777801513671875,389535.7386425,-1.279232685004952,-0.8535908802027784,-0.8979851233293034,-2.704892873764038,0.3035524189472198,-1.977004170417786,0.0733456015586853,-1.467177152633667,0.615129828453064,XArbitraryZVertical,-0.5396112650300884,-0.06336490905184482,-0.3453288824322622,0.7652141207759774,-0.4696621596813202,0.7820728421211243,-0.4096091389656067,0,0,0,-1,-1,389534.0409275,unknown,2,2023-11-06T09:24:39.129+02:00,2023-11-06T09:23:03.878+02:00,9,0.5993428,0,0,7.403943,0,0,2023-11-06T09:23:25.206+02:00,720948279.2187495,0,-1.080017,101.7217,1,0.7
2023-11-06T09:24:40.856+02:00,0,0,0,0,0,-1,0,-1,-1,-1,0,389535.7635365,-0.486358642578125,-0.470458984375,-0.0326080322265625,389535.7585575,-1.385993908614638,-0.9239532438617939,-0.8934463250216741,-2.112499713897705,0.9569957852363586,-2.629386425018311,0.06895709037780762,-1.347885608673096,0.4762224555015564,XArbitraryZVertical,-0.5543244005776582,-0.06219815605843109,-0.3676178484046718,0.7441189587744572,-0.5001247525215149,0.7792363166809082,-0.377711683511734,0,0,0,-1,-1,389534.0409275,unknown,2,2023-11-06T09:24:39.129+02:00,2023-11-06T09:23:03.878+02:00,9,0.5993428,0,0,7.403943,0,0,2023-11-06T09:23:25.206+02:00,720948279.2187495,0,-1.080017,101.7217,1,0.7
2023-11-06T09:24:40.885+02:00,0,0,0,0,0,-1,0,-1,-1,-1,0,389535.7834505001,-0.783935546875,-0.29241943359375,-0.1557464599609375,389535.7784715,-1.490566506461463,-0.9840538354789522,-0.864122507260502,-1.903312087059021,1.030079007148743,-3.651978969573975,-0.05859410762786865,-1.155316472053528,0.1893393397331238,XArbitraryZVertical,-0.5621683943004616,-0.06497429655921073,-0.3974263544770615,0.7223554343856956,-0.5407101511955261,0.7605258226394653,-0.3594900667667389,0,0,0,-1,-1,389534.0409275,unknown,2,2023-11-06T09:24:39.129+02:00,2023-11-06T09:23:03.878+02:00,9,0.5993428,0,0,7.403943,0,0,2023-11-06T09:23:25.206+02:00,720948279.2187495,0,-1.080017,101.7217,1,0.7
2023-11-06T09:24:40.931+02:00,0,0,0,0,0,-1,0,-1,-1,-1,0,389535.8033655,-1.530670166015625,-0.076507568359375,0.299102783203125,389535.7983865,-1.609166253560092,-1.057332945124068,-0.8171357713269318,-2.395593166351318,0.2078762352466583,-4.5036301612854,-0.4804076552391052,-0.8833484053611755,0.425243616104126,XArbitraryZVertical,-0.5713945954482935,-0.07377057193040447,-0.4320110018070386,0.6938534241062833,-0.5960694551467896,0.7291887998580933,-0.3361322283744812,0,0,0,-1,-1,389534.0409275,unknown,2,2023-11-06T09:24:39.129+02:00,2023-11-06T09:23:03.878+02:00,9,0.5993428,0,0,7.403943,0,0,2023-11-06T09:23:25.206+02:00,720948279.2187495,0,-1.080017,101.7217,1,0.7
2023-11-06T09:24:40.933+02:00,0,0,0,0,0,-1,0,-1,-1,-1,0,389535.8232795,-2.73895263671875,0.86529541015625,-0.18157958984375,389535.8183015,-1.748884587455509,-1.159413217774923,-0.7680573563717717,-4.010116577148438,-0.821297287940979,-4.101150989532471,-1.438357710838318,-0.5302495360374451,0.4746587872505188,XArbitraryZVertical,-0.5906917218929704,-0.0852936959107919,-0.4634558573076901,0.6549939491278536,-0.6592527627944946,0.6947392821311951,-0.2876165509223938,0,0,0,-1,-1,389534.0409275,unknown,2,2023-11-06T09:24:39.129+02:00,2023-11-06T09:23:03.878+02:00,9,0.5993428,0,0,7.403943,0,0,2023-11-06T09:23:25.206+02:00,720948279.2187495,0,-1.080017,101.7217,1,0.7
2023-11-06T09:24:40.936+02:00,0,0,0,0,0,-1,0,-1,-1,-1,0,389535.8431945,-6.211334228515625,3.56781005859375,-0.1611785888671875,389535.8382155,-1.90771732538308,-1.274783340802259,-0.7319718201140731,-5.715429306030273,0.0898398756980896,-3.765706062316895,-3.27140474319458,1.514843940734863,-0.3571524620056152,XArbitraryZVertical,-0.6196391761748158,-0.08690391278246812,-0.4888768713406854,0.6078604633543632,-0.7115054130554199,0.6683377027511597,-0.2169900089502335,0,0,0,-1,-1,389534.0409275,unknown,2,2023-11-06T09:24:39.129+02:00,2023-11-06T09:23:03.878+02:00,9,0.5993428,0,0,7.403943,0,0,2023-11-06T09:23:25.206+02:00,720948279.2187495,0,-1.080017,101.7217,1,0.7
2023-11-06T09:24:40.956+02:00,0,0,0,0,0,-1,0,-1,-1,-1,0,389535.8631085,-3.189590454101562,4.097427368164062,0.3235931396484375,389535.8581305,-2.062853820946082,-1.367679714645183,-0.7063857001416076,-4.352147579193115,0.6771335005760193,-0.9758119583129883,-5.170208930969238,3.513539552688599,0.3790391087532043,XArbitraryZVertical,-0.646327747156021,-0.0743899991124822,-0.5118164753216405,0.5610440134654922,-0.7450745105743408,0.6490885615348816,-0.153453141450882,0,0,0,-1,-1,389534.0409275,unknown,2,2023-11-06T09:24:39.129+02:00,2023-11-06T09:23:03.878+02:00,9,0.5993428,0,0,7.403943,0,0,2023-11-06T09:23:25.206+02:00,720948279.2187495,0,-1.080017,101.7217,1,0.7
2023-11-06T09:24:40.976+02:00,0,0,0,0,0,-1,0,-1,-1,-1,0,389535.8830235,-2.399612426757812,2.88653564453125,-0.0758209228515625,389535.8780445,-2.131649301386855,-1.39790346396534,-0.7158152709389102,-1.322011351585388,1.123892664909363,0.6802423596382141,-1.794578552246094,2.910844802856445,0.4105400443077087,XArbitraryZVertical,-0.6571635805927987,-0.05684729909543202,-0.5184729320163783,0.5441418218538973,-0.7433090209960938,0.6562328338623047,-0.1298088282346725,0,0,0,-1,-1,389534.0409275,unknown,2,2023-11-06T09:24:39.129+02:00,2023-11-06T09:23:03.878+02:00,9,0.5993428,0,0,7.403943,0,0,2023-11-06T09:23:25.206+02:00,720948279.2187495,0,-1.080017,101.7217,1,0.7
2023-11-06T09:24:40.996+02:00,0,0,0,0,0,-1,0,-1,-1,-1,0,389535.9029375,-1.102005004882812,1.919998168945312,-0.43994140625,389535.8979595,-2.140731857767186,-1.369356641888609,-0.7311696181151662,0.2247038632631302,2.372025728225708,0.338250070810318,-1.052274227142334,1.608794212341309,-0.2126033306121826,XArbitraryZVertical,-0.6510737636253368,-0.04041961007198887,-0.5262434446083084,0.5454695746430916,-0.7293419241905212,0.6677407622337341,-0.1489384174346924,0,0,0,-1,-1,389534.0409275,unknown,2,2023-11-06T09:24:39.129+02:00,2023-11-06T09:23:03.878+02:00,9,0.5993428,0,0,7.403943,0,0,2023-11-06T09:23:25.206+02:00,720948279.2187495,0,-1.080017,101.7217,1,0.7
2023-11-06T09:24:41.016+02:00,0,0,0,0,0,-1,0,-1,-1,-1,0,389535.9228525001,-0.1468505859375,1.614089965820312,-0.2243499755859375,389535.9178735,-2.133182454034822,-1.308900743124565,-0.7252481616152032,0.3559200465679169,2.747763872146606,-0.6630318760871887,0.1435631513595581,1.083794832229614,-0.1227601766586304,XArbitraryZVertical,-0.6342782116632802,-0.02854342241317069,-0.5451601612851463,0.5474274788498459,-0.7228173613548279,0.6633211970329285,-0.1937528401613235,0,0,0,-1,-1,389534.0409275,unknown,2,2023-11-06T09:24:39.129+02:00,2023-11-06T09:23:03.878+02:00,9,0.5993428,0,0,7.403943,0,0,2023-11-06T09:23:25.206+02:00,720948279.2187495,0,-1.080017,101.7217,1,0.7
2023-11-06T09:24:41.036+02:00,0,0,0,0,0,-1,0,-1,-1,-1,0,389535.9427675,0.874267578125,1.361282348632812,-0.177886962890625,389535.9377885,-2.131739605170073,-1.266382203665177,-0.7102487051536551,0.3495923578739166,1.575482487678528,-0.6132871508598328,1.066479444503784,0.8516396880149841,0.02198196947574615,XArbitraryZVertical,-0.6211595141745369,-0.02305728262070474,-0.5619931781654023,0.5457039737592957,-0.7233397364616394,0.6520223617553711,-0.2272584438323975,0,0,0,-1,-1,389534.0409275,unknown,2,2023-11-06T09:24:39.129+02:00,2023-11-06T09:23:03.878+02:00,9,0.5993428,0,0,7.403943,0,0,2023-11-06T09:23:25.206+02:00,720948279.2187495,0,-1.080017,101.7217,1,0.7
2023-11-06T09:24:41.056+02:00,0,0,0,0,0,-1,0,-1,-1,-1,0,389535.9626815,1.381942749023438,0.59283447265625,-0.3681793212890625,389535.9577025,-2.122296085612133,-1.234458015592648,-0.6917532341896927,0.8531891703605652,1.165877342224121,-1.032371997833252,1.952808141708374,0.4256644248962402,0.0004599094390869141,XArbitraryZVertical,-0.6101843669137382,-0.0243135962351981,-0.5739646437060733,0.5455717184924934,-0.7269781231880188,0.6378883719444275,-0.254167765378952,0,0,0,-1,-1,389534.0409275,unknown,2,2023-11-06T09:24:39.129+02:00,2023-11-06T09:23:03.878+02:00,9,0.5993428,0,0,7.403943,0,0,2023-11-06T09:23:25.206+02:00,720948279.2187495,0,-1.080017,101.7217,1,0.7
2023-11-06T09:24:41.075+02:00,0,0,0,0,0,-1,0,-1,-1,-1,0,389535.9825965,1.201614379882812,-0.1648101806640625,-0.2537384033203125,389535.9776175,-2.121495082497236,-1.21033350376031,-0.6658675381270002,-0.2152299135923386,1.232447266578674,-1.264922857284546,2.089725017547607,-0.4892931580543518,-0.0514492392539978,XArbitraryZVertical,-0.6004488011873351,-0.02792904024060875,-0.5875466799897358,0.541728794529185,-0.735843300819397,0.617741584777832,-0.2773624062538147,0,0,0,-1,-1,389534.0409275,unknown,2,2023-11-06T09:24:39.129+02:00,2023-11-06T09:23:03.878+02:00,9,0.5993428,0,0,7.403943,0,0,2023-11-06T09:23:25.206+02:00,720948279.2187495,0,-1.080017,101.7217,1,0.7
2023-11-06T09:24:41.095+02:00,0,0,0,0,0,-1,0,-1,-1,-1,0,389536.0025105,0.9603729248046875,-0.2470855712890625,-0.14599609375,389535.9975325,-2.159694517127453,-1.207574616340462,-0.6526745710249482,-2.055886745452881,1.371889591217041,-1.054489612579346,1.788344621658325,-0.8766463398933411,0.09827214479446411,XArbitraryZVertical,-0.5986943468736211,-0.02082709605916584,-0.6018348824371132,0.5281345735346117,-0.7426292896270752,0.6073133945465088,-0.2822626233100891,0,0,0,-1,-1,389534.0409275,unknown,2,2023-11-06T09:24:39.129+02:00,2023-11-06T09:23:03.878+02:00,9,0.5993428,0,0,7.403943,0,0,2023-11-06T09:23:25.206+02:00,720948279.2187495,0,-1.080017,101.7217,1,0.7
2023-11-06T09:24:41.115+02:00,0,0,0,0,0,-1,0,-1,-1,-1,0,389536.0224255,0.9854583740234375,-0.107879638671875,-0.20599365234375,389536.0174465,-2.227058317365695,-1.220533375766841,-0.6519960391342133,-2.806045293807983,1.421226501464844,-0.8544676303863525,1.704603910446167,-0.7868432402610779,0.1131500005722046,XArbitraryZVertical,-0.6029957139529748,-0.004206408633095656,-0.6155454543229761,0.5074270602426282,-0.7466114163398743,0.6067742109298706,-0.272756963968277,0,0,0,-1,-1,389534.0409275,unknown,2,2023-11-06T09:24:39.129+02:00,2023-11-06T09:23:03.878+02:00,9,0.5993428,0,0,7.403943,0,0,2023-11-06T09:23:25.206+02:00,720948279.2187495,0,-1.080017,101.7217,1,0.7
2023-11-06T09:24:41.135+02:00,0,0,0,0,0,-1,0,-1,-1,-1,0,389536.0423395,0.9568939208984375,-0.0347442626953125,-0.3986968994140625,389536.0373615,-2.299586222202989,-1.236509222584241,-0.6577995580900607,-2.717382907867432,1.434741258621216,-0.5378211140632629,1.741247892379761,-0.6702302694320679,-0.03090739250183105,XArbitraryZVertical,-0.6082144337589697,0.01605019817157257,-0.6273582629847838,0.4860445225528521,-0.747534453868866,0.6113770604133606,-0.2596351802349091,0,0,0,-1,-1,389534.0409275,unknown,2,2023-11-06T09:24:39.129+02:00,2023-11-06T09:23:03.878+02:00,9,0.5993428,0,0,7.403943,0,0,2023-11-06T09:23:25.206+02:00,720948279.2187495,0,-1.080017,101.7217,1,0.7
2023-11-06T09:24:41.155+02:00,0,0,0,0,0,-1,0,-1,-1,-1,0,389536.0622545001,0.79376220703125,0.09014892578125,-0.5883331298828125,389536.0572755,-2.361488944318102,-1.246588953730379,-0.6661815248552098,-2.178866863250732,1.344096064567566,-0.2170372307300568,1.632955431938171,-0.6101455092430115,-0.2595333755016327,XArbitraryZVertical,-0.6111431749263356,0.03579235412046235,-0.6371270565185891,0.4682862646388504,-0.7452295422554016,0.6179884672164917,-0.2504458427429199,0,0,0,-1,-1,389534.0409275,unknown,2,2023-11-06T09:24:39.129+02:00,2023-11-06T09:23:03.878+02:00,9,0.5993428,0,0,7.403943,0,0,2023-11-06T09:23:25.206+02:00,720948279.2187495,0,-1.080017,101.7217,1,0.7
2023-11-06T09:24:41.175+02:00,0,0,0,0,0,-1,0,-1,-1,-1,0,389536.0821685,0.5545196533203125,0.278533935546875,-0.5801239013671875,389536.0771905,-2.407075891772342,-1.250236235234193,-0.6783571438921343,-1.597169756889343,1.125434279441833,0.2636601328849792,1.414280414581299,-0.4361238479614258,-0.3479858934879303,XArbitraryZVertical,-0.6119253211361418,0.05365604465561888,-0.6437933261336604,0.4562876463466409,-0.7389416694641113,0.6275147199630737,-0.2453368604183197,0,0,0,-1,-1,389534.0409275,unknown,2,2023-11-06T09:24:39.129+02:00,2023-11-06T09:23:03.878+02:00,9,0.5993428,0,0,7.403943,0,0,2023-11-06T09:23:25.206+02:00,720948279.2187495,0,-1.080017,101.7217,1,0.7
2023-11-06T09:24:41.195+02:00,0,0,0,0,0,-1,0,-1,-1,-1,0,389536.1020835,0.4031524658203125,0.534454345703125,-0.6146392822265625,389536.0971045,-2.433358470913893,-1.247262340841192,-0.6973821874201293,-0.9441763162612915,0.8132279515266418,0.9491037130355835,1.189952611923218,-0.2576003074645996,-0.3467455208301544,XArbitraryZVertical,-0.6109644936170735,0.06982656338015307,-0.6463861335986721,0.4516984454478214,-0.7267568707466125,0.6422132849693298,-0.2436932772397995,0,0,0,-1,-1,389534.0409275,unknown,2,2023-11-06T09:24:39.129+02:00,2023-11-06T09:23:03.878+02:00,9,0.5993428,0,0,7.403943,0,0,2023-11-06T09:23:25.206+02:00,720948279.2187495,0,-1.080017,101.7217,1,0.7
